,lin_acc_x,lin_acc_y,lin_acc_z,gyr_x,gyr_y,gyr_z,step_count_value,light_light_intensity,rotation_x,rotation_y,rotation_z,rotation_theta,rotation_phi,proximity_x,proximity_y,proximity_z,step_detect_value,labelwalkupstairs
2017-06-11 02:33:34.588,0.15456446725490178,-0.71099514712549006,-0.92295588921568628,0.05303392321,-0.71729418729,0.27089783129,,38.833,-0.09524765802,0.1961452896,0.9655271792,0.13819337296,0.5235988,,,,1.0,0
2017-06-11 02:33:34.838,3.3048616113000002,-7.9301765351999993,-2.9893989585999998,0.60483799189,-5.53372412814,5.181875264,,14.296499,-0.23436600301,0.00528532637255,-0.00847650352941,0.150927422902,0.5235988,,,,,0
2017-06-11 02:33:35.088,5.5523604597959197,4.3823056448979596,-1.3453557811612247,0.50663845855,0.90943434845,0.66085313983,,0.0,-0.575064537347,-0.0284130636082,-0.655236603878,0.48712427102,0.5235988,0.0,0.0,0.0,,0
2017-06-11 02:33:35.338,-1.2616775095999999,0.13033748079999993,-0.74602236119999998,-0.51640198286,-0.46730755377,2.133207298,,,-0.5956243394,0.03155070102,-0.5730238282,0.555721371,0.5235988,,,,,0
2017-06-11 02:33:35.588,1.1500477995599998,0.17507160320000001,-0.59310681113999986,-0.60664802419,1.5009100445,0.59362643645,,,-0.5876230304,0.242099348,-0.4679164224,0.610562396,0.5235988,,,,,0
2017-06-11 02:33:35.838,0.40325799088000008,0.59912698380000007,-0.082929275454000043,-0.16988743007,-0.364348694818,-0.191128677867,,,-0.5805923948,0.3222491028,-0.525437155,0.5308965424,0.5235988,,,,1.0,0
2017-06-11 02:33:36.088,1.7940947678200001,-0.77000556940000009,0.12937976231999998,0.41886258195,-0.368245577584,0.31639350405,,,-0.6016856124,0.300235662,-0.4839368214,0.5592789014,0.5235988,,,,1.0,0
2017-06-11 02:33:36.338,1.6362226400000004,-1.5493248643999999,-0.67414561140000007,-1.18123107071,-0.197855907547,-1.17617631188,,,-0.6406923232,0.2766288102,-0.4725725132,0.5338840908,0.5235988,,,,,0
2017-06-11 02:33:36.588,-2.5364500668000005,1.2321535239080001,2.0502292384,-0.64694784399,-1.5617271214,-1.33865669346,,,-0.7978205196,0.15771683912,-0.4453762354,0.3651107686,0.5235988,,,,,0
2017-06-11 02:33:36.838,-1.3068966482000002,-0.89903266140000004,0.94452058820000018,1.2963977832,1.22712682074,1.0202082769,,,-0.7929422462,0.11534808346,-0.4264936178,0.411417851,0.5235988,,,,1.0,0
2017-06-11 02:33:37.088,0.97308859464000008,1.7153876958000001,0.076642242799999996,0.5302646963,0.04040629044,0.9443998966,,,-0.6731535874,0.214781493,-0.4509321492,0.543935298,0.5235988,,,,,0
2017-06-11 02:33:37.338,3.5473980082000001,-2.3518973506799998,-2.0983199268000003,-0.615783357844,-0.200796378152,-0.35220018384,,,-0.659180185,0.2263886186,-0.406357478,0.5901665626,0.5235988,,,,,0
2017-06-11 02:33:37.588,-3.5431329683999997,0.20452242392000003,2.3600940954,-1.0928544279,-1.16859891678,-1.6627588137,,,-0.7900575716,0.12315141472,-0.4081688376,0.4317675034,0.5235988,,,,,0
2017-06-11 02:33:37.838,-1.6715832179999999,0.57551070513999991,1.3083876816,0.896508596674,0.96636515965,0.5843314004,,,-0.8345804904,0.05230787012,-0.3850809694,0.3848043252,0.5235988,,,,1.0,0
2017-06-11 02:33:38.088,0.59047630243999993,0.66090785760000004,0.68777797555999987,0.50766059471,0.9341253045,1.1329945323,,,-0.6946911784,0.18607617442,-0.4666026272,0.5115757904,0.5235988,,,,,0
2017-06-11 02:33:38.338,2.4649149710000002,-1.3834827454,-1.7449386593600003,-0.1382331676,-0.21676724337,0.27266527171,,,-0.6454922176,0.2382881106,-0.452921203,0.5666525484,0.5235988,,,,,0
2017-06-11 02:33:38.588,-1.1008260009999999,-0.94689590945999991,0.92048510820000007,-1.2818962344,-0.987585118097,-1.854707322,,,-0.7470172152,0.18104252072,-0.438490989,0.4569292122,0.5235988,,,,,0
2017-06-11 02:33:38.838,-1.7815851879,0.67909590049999979,2.10321121,0.54452135268,0.430212537,0.19305582787,,,-0.853577232549,0.0789560253922,-0.362899591961,0.361286112549,0.5235988,,,,,0
2017-06-11 02:33:39.088,0.0080936293799999965,0.67825486740000007,1.2049755639999999,0.6112795741,1.1216552186,1.2048314875,,,-0.719808463265,0.201188753265,-0.459348421224,0.475319724898,0.5235988,,,,1.0,0
2017-06-11 02:33:39.338,1.6211579984160003,0.20568155108,0.020462936259999995,0.34301161461,-0.01819613995,0.6394628326,,,-0.6369121604,0.2666231116,-0.4697064498,0.5496064458,0.5235988,,,,,0
2017-06-11 02:33:39.588,0.92782878279999992,-1.8017450063799998,-0.96569561029999984,-0.991656342525,-0.493580419103,-1.49388362301,,,-0.6766806218,0.2494356556,-0.4646267466,0.5077058224,0.5235988,,,,,0
2017-06-11 02:33:39.838,-2.9629921270000001,1.8584478397599999,2.5566202094000001,-0.414472965545,-1.2027274424,-0.923885615891,,,-0.8338178704,0.09983415028,-0.4062205142,0.3533002164,0.5235988,,,,,0
2017-06-11 02:33:40.088,-1.1940833581999999,-1.5078144476400002,0.39987536060000006,0.961499913929,1.74530914828,1.07015557,,,-0.7788992196,0.10813200086,-0.4426638104,0.423507793,0.5235988,,,,1.0,0
2017-06-11 02:33:40.338,1.5801187817199998,1.8542014098000001,0.68919596989000009,0.11710903653,0.294864778584,0.795338486,,,-0.6587897888,0.2565204462,-0.4884599602,0.510693147,0.5235988,,,,,0
2017-06-11 02:33:40.588,1.8588417314799996,-0.65136226298,-0.53719344041999995,0.320151981,-0.05389634966,0.73182766904,,,-0.6262219084,0.2811157514,-0.463200963,0.5596508834,0.5235988,,,,1.0,0
2017-06-11 02:33:40.838,0.98024156397999984,-1.3626396549999997,0.025147193400000011,-1.07184739993,-0.7254180307,-1.0987636525,,,-0.6526283836,0.2789198498,-0.4259203538,0.5570748992,0.5235988,,,,,0
2017-06-11 02:33:41.088,0.24064792273999999,0.45756526071999992,3.9368027960000007,0.22396477426,-1.9919609448,-2.24987978,,,-0.7892641948,0.079182304408,-0.3954423998,0.4496407286,0.5235988,,,,,0
2017-06-11 02:33:41.338,-2.4496610172000004,0.99204549704,1.4964259491999998,1.541497351,-1.43995457768,-1.37962730135,,,-0.7849601688,-0.2938813892,-0.298942764,0.4461486004,0.5235988,,,,,0
2017-06-11 02:33:41.588,-1.66105384892,-3.4030321617999992,0.63913726103400004,1.3542123271,0.65129192474,0.99472942473,105.0,,-0.7004340916,-0.3586556064,-0.1932552382,0.5820240402,0.5235988,,,,1.0,0
2017-06-11 02:33:41.838,-0.091608431340000004,0.86951957329999996,0.40071958771999994,0.7221173878,-0.32359104206,1.0230297976,,,-0.6670275268,-0.2621643318,-0.06533095206,0.6926657262,0.5235988,,,,,0
2017-06-11 02:33:42.088,3.0948825297999996,-2.2496559297199998,-1.9890995801040001,-0.62842163281,-0.53325657114,-0.48076565435,106.0,,-0.655936601,-0.2583857648,0.02205083489,0.7075792998,0.5235988,,,,1.0,0
2017-06-11 02:33:42.338,-3.4433971157999999,-0.024366224410000008,2.94751191808,-0.729336216268,-1.5402942096,-1.773255909,,,-0.6642244558,-0.4551567446,-0.05585452192,0.5828375224,0.5235988,,,,,0
2017-06-11 02:33:42.588,-2.1861371459999996,-0.33049917119999994,0.96958677860000009,0.95013876277,0.98596674845,0.61459087079,107.0,,-0.6269302662,-0.551183257,-0.04636497992,0.5441130756,0.5235988,,,,1.0,0
2017-06-11 02:33:42.838,-0.19290321652000006,0.55012962760000006,0.77827813038400007,0.422369653673,1.06636495393,1.17646614857,,,-0.6237362254,-0.3577386758,-0.02442817449,0.6919807456,0.5235988,,,,,0
2017-06-11 02:33:43.088,0.18742122874,0.80900331863999997,-0.34424376392,0.345160458812,-0.306429792574,0.386115451188,,,-0.6148529598,-0.2967297342,0.0241180991248,0.7300351228,0.5235988,,,,,0
2017-06-11 02:33:43.338,1.1710902692999998,-1.7987683893999999,-0.46253084878,0.021443547975,-0.064671358853,0.61587918276,108.0,,-0.6125034848,-0.2775064132,0.08485179184,0.7348181786,0.5235988,,,,1.0,0
2017-06-11 02:33:43.588,0.17108279355999997,-0.78569039075999991,0.85503102339999981,-0.9728493326,-0.72539673798,-1.37313247902,,,-0.6467677582,-0.3412576394,0.06947843332,0.6749622834,0.5235988,,,,,0
2017-06-11 02:33:43.838,-0.78210588628399991,0.15214542320999999,3.7288302019999997,0.239626878233,-1.7005032828,-2.018930421,,,-0.5828534948,-0.5624804772,0.0025921124496,0.5781054664,0.5235988,,,,,0
2017-06-11 02:33:44.088,-1.66273550604,0.53828980813600003,2.0320936355999999,1.3088763624,-1.4085665004,-1.25260567187,,,-0.3630731098,-0.7852008542,0.07489038448,0.4888497692,0.5235988,,,,,0
2017-06-11 02:33:44.338,-0.89017436159999985,-2.9585240869399998,1.480576575,1.3608774949,0.6059346528,0.97868401925,109.0,,-0.2658674956,-0.7823834462,0.243549037,0.502418477,0.5235988,,,,1.0,0
2017-06-11 02:33:44.588,0.13297219474999999,0.63595700832800006,1.2927689064600001,0.9417806737,-0.57292820127,1.1270001332,,,-0.3154512968,-0.6761337744,0.4216101368,0.5118678712,0.5235988,,,,,0
2017-06-11 02:33:44.838,2.7012290295000003,-1.6932769826999998,-1.9443196927799999,-0.53022210621,-0.18134385976,-0.45102790494,,,-0.2984665632,-0.6507328966,0.5194656446,0.4653818022,0.5235988,,,,,0
2017-06-11 02:33:45.088,-2.895746328,-0.28933243366,2.6360668495199997,-1.1212186852,-1.1499342907,-1.6983738343,,,-0.2110586536,-0.7841136606,0.3497278848,0.459096736,0.5235988,,,,,0
2017-06-11 02:33:45.338,-1.3600113558000002,0.2381088878,1.7902941103000001,0.8802289583,0.617423037,0.4654336246,110.0,,-0.13993050858,-0.8558809212,0.2981828412,0.3941281238,0.5235988,,,,1.0,0
2017-06-11 02:33:45.588,0.19019710709999998,0.56778939120000005,0.97485256009999988,0.668870515,0.826417782303,1.0577185167,,,-0.2242449134,-0.7201498154,0.427791171,0.4948412698,0.5235988,,,,,0
2017-06-11 02:33:45.838,0.80235033630000008,0.52062590063400005,0.23455713302000003,0.4178191503,-0.27160054766,0.6326272995,,,-0.2562069126,-0.6524114856,0.5219525844,0.4852694732,0.5235988,,,,,0
2017-06-11 02:33:46.088,1.7147218474460002,-2.3356464081999997,-0.87783565770000005,-0.979202292667,-0.252995727779,-1.0463659665,111.0,,-0.2479938206,-0.6760147044,0.5251815434,0.4494290166,0.5235988,,,,1.0,0
2017-06-11 02:33:46.338,-2.9381716579999999,0.70026735615999991,1.7330928955999996,-0.899344241163,-1.21874048644,-1.3424593505,,,-0.1490206611,-0.81313466,0.3491049186,0.4339736042,0.5235988,,,,,0
2017-06-11 02:33:46.588,-1.2615419146,0.21863800180000006,0.85806585359999998,1.0262878555,0.93723431014,0.73864190687,112.0,,-0.10857504162,-0.8410868218,0.3394279552,0.401360708,0.5235988,,,,1.0,0
2017-06-11 02:33:46.838,0.36695682652,0.62404431960000006,0.97950530180000006,0.534427121515,0.914985435256,1.09456894788,,,-0.2201234734,-0.702876791,0.462126695,0.490703721,0.5235988,,,,,0
2017-06-11 02:33:47.088,1.5421631077,-0.19315399773999997,0.09232161665999998,0.266010745549,-0.138595175236,0.5948615273,113.0,,-0.2709793206,-0.635898418,0.5379741304,0.4819986868,0.5235988,,,,1.0,0
2017-06-11 02:33:47.338,0.59093592149999996,-1.8230031808440001,-1.1726352698,-1.04783787491,-0.21303005915,-1.30163622527,,,-0.2549843538,-0.6760429354,0.5095434494,0.4619070452,0.5235988,,,,,0
2017-06-11 02:33:47.588,-3.0473396531999994,1.2688686862,1.9747744005999999,-0.823106488787,-1.2624863064,-1.16705506884,,,-0.15132131572,-0.8191384724,0.3273836684,0.439591672,0.5235988,,,,,0
2017-06-11 02:33:47.838,-0.51152164907999997,-0.70696310600000001,0.58760647953000011,0.9591463365,1.25911113675,0.834999469,114.0,,-0.1346535032,-0.8194784578,0.3426281476,0.433753506,0.5235988,,,,1.0,0
2017-06-11 02:33:48.088,0.19345921199999999,1.2446188256999999,0.42683228651999999,0.5407415823,0.6283045157,0.9979235971,,,-0.2332016738,-0.6881341464,0.4548334982,0.512777999,0.5235988,,,,,0
2017-06-11 02:33:48.338,1.3755591694,-0.64907412019199995,0.094692875099999976,0.24089389529,0.017067531591,0.5606199841,115.0,,-0.2741023084,-0.6331019446,0.5182984122,0.5049334414,0.5235988,,,,1.0,0
2017-06-11 02:33:48.588,0.82402483960000017,-1.6744361310000002,-0.78044567884000005,-1.06652378432,-0.37706150328,-1.45903443875,,,-0.2602528344,-0.6760637342,0.4801366102,0.488562463,0.5235988,,,,,0
2017-06-11 02:33:48.838,-2.95380719,0.89469544404000001,2.289820653,-0.79725498817,-1.5458733554,-1.2528505694,,,-0.13868473298,-0.8388689454,0.3010946262,0.4233725324,0.5235988,,,,,0
2017-06-11 02:33:49.088,-0.05213989379999999,-0.3378796309999999,0.85494283459999987,1.1562374711,0.90051196046,0.703112057512,116.0,,-0.0908381056,-0.8545784368,0.3223272024,0.3919020802,0.5235988,,,,1.0,0
2017-06-11 02:33:49.338,-0.0074952439199999967,1.0984046056199999,0.91012379180000014,0.70528850404,0.885108626707,1.30363135354,,,-0.1943624372,-0.7230997058,0.4662899246,0.466312399,0.5235988,,,,,0
2017-06-11 02:33:49.588,0.56401203150000012,0.94004193160000016,0.40599414311999993,0.5202030539,-0.62530199588,0.6528464127,,,-0.2280235628,-0.6496640412,0.5744664876,0.4410371546,0.5235988,,,,,0
2017-06-11 02:33:49.838,2.9669019000000003,-0.067955493000000006,-0.27649585599999998,-0.00728271675,-0.5915395792,0.3318639481,117.0,,-0.2028698134,-0.634358805,0.6433363738,0.3767702304,0.5235988,,,,1.0,0
2017-06-11 02:33:50.088,-0.20888787468,-1.1620078304120001,1.89899673154,-1.11710884881,-1.1594209919,-1.858731984,,,-0.08549426787,-0.7469924268,0.5558910882,0.344141447,0.5235988,,,,,0
2017-06-11 02:33:50.338,-3.3888356435999998,0.7290426750000002,1.7991408888,1.2706101683,-1.0902032592,-0.3994633001,,,0.13948089674,-0.786188685,0.5116355602,0.309762779,0.5235988,,,,,0
2017-06-11 02:33:50.588,-0.30363943111999964,-0.62969195440000003,1.1542500067999999,0.707722311215,-0.92628893654,-0.20079637491,118.0,,0.2432297708,-0.7413560524,0.5916218572,0.1981775502,0.5235988,,,,1.0,0
2017-06-11 02:33:50.838,-0.082644075839999942,-0.0027615080000000071,2.1472740376800004,0.9958899761,-0.346173846437,1.1541931976,,,0.2289467934,-0.675112039,0.6363635386,0.0747003088944,0.5235988,,,,,0
2017-06-11 02:33:51.088,3.6055115218000005,0.2468347192,-0.79036120706599988,-0.122996964,-0.626909732849,0.18082214383,,,-0.215491417,0.6588959604,-0.7193481176,0.036689561078,0.5235988,,,,,0
2017-06-11 02:33:51.338,-0.50575215480000002,-1.4622916557800003,4.003754616000001,-0.62842163648,-1.5385906574,-1.920922538,119.0,,-0.2584063782,0.4643407106,-0.4197175504,0.021500154259,0.5235988,,,,1.0,0
2017-06-11 02:33:51.588,-1.5799607308000001,-0.15938325740000001,0.21567202350000006,1.43968839453,-1.00509984133,-0.06681145622,120.0,,-0.5783265992,0.5450279814,-0.5901989744,0.11969183798,0.5235988,,,,1.0,0
2017-06-11 02:33:51.838,-1.16256140528,-0.3143783086000001,3.0132420968800004,0.70758389138,-0.66444126251,0.225391508417,,,-0.5890720772,0.4759784282,-0.6129092548,0.220484151,0.5235988,,,,,0
2017-06-11 02:33:52.088,-0.017933160679999977,0.58228756717999997,0.070821632600000003,0.7075519619,-0.42248264296,0.4131130678,,,-0.5857684486,0.4056190992,-0.599586884,0.3630327326,0.5235988,,,,,0
2017-06-11 02:33:52.338,1.9930185858000002,-0.9348322711,-0.72402852787999994,0.162956071934,-0.30101888394,0.355852191798,121.0,,-0.5579975146,0.38926361,-0.5848952948,0.4409829558,0.5235988,,,,1.0,0
2017-06-11 02:33:52.588,0.64879104599999993,-1.9209880648000002,1.1321817891999999,-1.1549491571,-0.82802552609,-1.9175473581,,,-0.6694598298,0.3411480976,-0.5437214208,0.36424245,0.5235988,,,,,0
2017-06-11 02:33:52.838,-3.6670108240000001,1.57036706628,2.5010025335999999,-0.052341850094,-1.45709665528,-1.19638822796,,,-0.8445200412,0.16819410964,-0.4475548784,0.228116967,0.5235988,,,,,0
2017-06-11 02:33:53.088,-0.21745903444460005,-1.6542508255999999,0.59932603605399992,1.19499719899,1.13583508949,0.716269141636,122.0,,-0.8273476986,0.11453901972,-0.4547850418,0.3018083694,0.5235988,,,,1.0,0
2017-06-11 02:33:53.338,-0.29199595073999995,1.1429382590000001,0.54858183743,0.665895508317,0.543041076752,1.20294882089,,,-0.6978915114,0.208850843,-0.5219045032,0.4402369586,0.5235988,,,,,0
2017-06-11 02:33:53.588,1.17025396914,-0.45473120589999999,-0.29781884142000004,0.183627318653,-0.0587211634859,0.447162738889,123.0,,-0.6513140628,0.2362091764,-0.4991043548,0.5202216818,0.5235988,,,,1.0,0
2017-06-11 02:33:53.838,0.11325059320000003,-2.4679122232000004,-0.79356958479999984,-1.1778300805,-0.23057671236,-1.478880914,,,-0.6984152608,0.2335818538,-0.4938435556,0.4554356638,0.5235988,,,,,0
2017-06-11 02:33:54.088,-3.3291325190000003,1.3621721897400001,2.5819562908,-0.67040372185,-1.3736648419,-0.93651029373,,,-0.8477469136,0.12701285822,-0.4282087702,0.2764857224,0.5235988,,,,,0
2017-06-11 02:33:54.338,-0.29144714320799997,-1.0849323874399999,0.70776366864000007,1.0197823994,1.4919876567,0.8786105799,124.0,,-0.8254468768,0.12214621038,-0.438073463,0.3253324136,0.5235988,,,,1.0,0
2017-06-11 02:33:54.588,0.22051365140000001,0.9408249796,0.68667876947999984,0.4725033976,0.525675733978,0.9637778843,,,-0.6938883,0.2287717748,-0.5217979992,0.4383238116,0.5235988,,,,,0
2017-06-11 02:33:54.838,1.653160619708,-0.75341994132000001,-0.31198491914000004,0.126116603613,0.11026285962,0.51523078538,125.0,,-0.6367279698,0.2758952858,-0.513493285,0.5042013064,0.5235988,,,,1.0,0
2017-06-11 02:33:55.088,0.65293323860000019,-1.3356268037000001,-0.65240106999999992,-1.1120407619,-0.569691437976,-1.6870451724,,,-0.6951071556,0.2612807086,-0.5035985528,0.4344444286,0.5235988,,,,,0
2017-06-11 02:33:55.338,-3.0720945226000005,1.3978192604799999,2.8094604539999999,-0.348856955958,-1.32477270257,-0.921284733926,,,-0.8507142522,0.11749998078,-0.4217591146,0.282289855,0.5235988,,,,,0
2017-06-11 02:33:55.588,-0.19811827000000004,-1.3402367164000004,0.65038217120000008,1.1672786561,1.3766780037,0.8861168813,126.0,,-0.8145471716,0.1069238116,-0.4405713968,0.353904824,0.5235988,,,,1.0,0
2017-06-11 02:33:55.838,0.22342468058799994,1.4740819928,0.39530994337999997,0.4853972088,0.461856151303,0.974276061,,,-0.6873996942,0.2087953902,-0.5038656232,0.47765073,0.5235988,,,,,0
2017-06-11 02:33:56.088,1.7327510056200004,-1.29286275206,-0.41553998467999997,0.17408244067,-0.139191421013,0.541199412285,127.0,,-0.6380116232,0.2483542184,-0.4801818864,0.5477851646,0.5235988,,,,1.0,0
2017-06-11 02:33:56.338,0.030163137200000037,-0.96311831152000016,-0.80230592600000006,-1.3108141553,-0.399420713275,-1.7000241738,,,-0.6958056948,0.2268238716,-0.4797191866,0.4778699286,0.5235988,,,,,0
2017-06-11 02:33:56.588,-3.4646816959999995,1.5688852335999999,1.8266878796000001,-0.43173510312,-1.02057028493,-0.85978625141,,,-0.8346041848,0.0979891928,-0.43722387,0.314702043,0.5235988,,,,,0
2017-06-11 02:33:56.838,-0.057740156599999946,-1.0281745404,-0.037131641753999987,1.05884153596,1.35957777485,0.834098646061,128.0,,-0.7947267992,0.10252111196,-0.4666198782,0.3676688418,0.5235988,,,,1.0,0
2017-06-11 02:33:57.088,0.14994706789999998,1.3604049216,0.0090790812360000001,0.4602271208,0.596533147093,1.0520541877,,,-0.6657577866,0.2070407992,-0.5277442676,0.4829066928,0.5235988,,,,,0
2017-06-11 02:33:57.338,0.71556028787399983,-0.076191731040000002,-0.19724811258000002,0.219684585274,0.051734959152,0.5271556996,129.0,,-0.6269742934,0.2406666944,-0.5065456236,0.5404834834,0.5235988,,,,1.0,0
2017-06-11 02:33:57.588,2.6588018053999996,-1.06601895106,-0.91883696760000011,-0.819305433203,-0.145121937726,-0.683978956525,,,-0.6333262838,0.260802591,-0.475576864,0.5497689854,0.5235988,,,,,0
2017-06-11 02:33:57.838,-2.9474431514000003,1.0303466626,1.4338156494999998,-0.438197976328,-1.1173217885,-1.190298002,,,-0.7631868278,0.16307968778,-0.4614507348,0.4171270778,0.5235988,,,,,0
2017-06-11 02:33:58.088,1.6326740710000001,-0.36800240999999984,-0.18752595896399998,1.14124614819,-0.5078735379,0.171878458613,130.0,,-0.7826208894,0.06921217694,-0.4188212474,0.451555022,0.5235988,,,,1.0,0
2017-06-11 02:33:58.338,-3.0576774948000001,0.80578593649999997,2.2937028543999998,0.741474070816,-0.480648541537,0.7391316856,,,-0.749508637,0.032152442192,-0.3602752818,0.5524550328,0.5235988,,,,,0
2017-06-11 02:33:58.588,0.33720442437999998,0.31929115937999997,0.17876646826600007,0.6601291323,-0.6586811019,0.4722052743,,,-0.7061417434,-0.005462231123,-0.26018284,0.6574132422,0.5235988,,,,,0
2017-06-11 02:33:58.838,2.8506016607999993,-2.4263616632000002,-0.85555075509999989,-0.626079245693,-0.694306786,-0.72626980344,131.0,,-0.7086441956,-0.05350656598,-0.1965586296,0.673597687,0.5235988,,,,1.0,0
2017-06-11 02:33:59.088,-2.0938990280000001,-0.72577700859999994,3.3348727046000004,-0.515767555606,-1.70605415879,-2.02107277071,,,-0.7642045588,-0.262430165,-0.2410034754,0.52845943,0.5235988,,,,,0
2017-06-11 02:33:59.338,-1.6369405034000002,-0.078338577399999915,1.9043093406,1.04285012102,-0.0140522554059,-0.131793907044,132.0,,-0.7470109628,-0.4653441054,-0.1607100402,0.4440036188,0.5235988,,,,1.0,0
2017-06-11 02:33:59.588,-0.93708290665999994,-0.34792159639999992,1.3126449500000001,0.875483080404,0.910242575929,1.23454257091,,,-0.6927589032,-0.354195546,-0.124516809,0.6119004118,0.5235988,,,,,0
2017-06-11 02:33:59.838,0.61127950045840007,0.90242945332999991,0.1518204588,0.4956079162,-0.21766161005,0.672032751,,,-0.662468059,-0.2640238596,-0.0466964493,0.6988958832,0.5235988,,,,,0
2017-06-11 02:34:00.088,2.6391193307999998,-2.2316475861200002,-1.4959968714,-0.63606214675,-0.214599948845,-0.426564432376,133.0,,-0.6557944962,-0.251804917,0.019212631298,0.7103954854,0.5235988,,,,1.0,0
2017-06-11 02:34:00.338,-2.5496712001999997,-0.26685625170399996,2.2637426178800002,-1.0093587357,-1.37815797664,-1.859360172,,,-0.6888233782,-0.4133027448,-0.10206308884,0.5790713714,0.5235988,,,,,0
2017-06-11 02:34:00.588,-1.7657209741999997,1.2495993453999998,0.92983141612000009,0.594116218131,-0.135047922674,-0.161547731444,,,-0.6742367608,-0.5803028338,-0.08934097458,0.4468692372,0.5235988,,,,,0
2017-06-11 02:34:00.838,-0.73797837940000011,-0.91104964975399993,1.0678264775999999,0.9122132799,1.3969610105,1.0561853098,134.0,,-0.6419328252,-0.4837350154,-0.03788509924,0.5887339488,0.5235988,,,,1.0,0
2017-06-11 02:34:01.088,1.09865194994,1.5778348327,0.9313436344799999,0.6079363381,-0.00064948172,1.0560788425,,,-0.6431566844,-0.3082683422,0.0197494540766,0.6992047952,0.5235988,,,,,0
2017-06-11 02:34:01.338,1.6442165832000004,0.93016019040000009,-0.20728670866000001,0.44663059402,-0.472567279,0.6622692289,,,-0.611199925,-0.283885757,0.13677469994,0.7253174684,0.5235988,,,,,0
2017-06-11 02:34:01.588,3.4137152607999997,-2.2081180098000002,0.96565565629999994,-1.27334650393,-1.4166158202,-1.58522558544,135.0,,-0.606930148,-0.396683977,0.1587555313,0.6622985286,0.5235988,,,,1.0,0
2017-06-11 02:34:01.838,-2.1421429399800003,-1.1989168182600001,3.956792342,0.422748823984,-2.236879507,-2.533990852,,,-0.458874397,-0.7084641378,0.08195922194,0.514490899,0.5235988,,,,,0
2017-06-11 02:34:02.088,-1.1243564530400001,-0.58162754339999989,1.7393415734000002,1.620553139,0.41326212952,0.24702670725,,,-0.2754130722,-0.8222052858,0.1844880626,0.4576868826,0.5235988,,,,,0
2017-06-11 02:34:02.338,0.30138817459999995,0.014021549200000028,1.2561693933,0.844038977,0.25785495445,1.2602610354,,,-0.3110521738,-0.6925459082,0.3562100056,0.541820729,0.5235988,,,,,0
2017-06-11 02:34:02.588,1.8893366920200001,-0.52583802690000003,-0.26730479388,0.47293993401,-0.223027820389,0.64146451325,137.0,,-0.3288395564,-0.624154933,0.4813065688,0.5192442314,0.5235988,,,,1.0,0
2017-06-11 02:34:02.838,0.84923012240000018,-1.64884715068,-0.69062066487999985,-1.391307322,-0.598321877402,-1.7988838252,,,-0.3100367828,-0.680983155,0.4156661504,0.5095315456,0.5235988,,,,,0
2017-06-11 02:34:03.088,-3.288105786,2.4351308693999996,2.9110139107999999,-0.307920447616,-0.975717751283,-0.689038014222,,,-0.1915346888,-0.8502441516,0.2623751786,0.4103862618,0.5235988,,,,,0
2017-06-11 02:34:03.338,0.22528710700000004,-1.6711386039559999,0.6159096072800001,1.24161624396,1.45540446861,0.864956806931,138.0,,-0.2041512226,-0.7882299464,0.3391283026,0.4652986226,0.5235988,,,,1.0,0
2017-06-11 02:34:03.588,0.81982492456000022,1.7769981243999999,0.31134269026,0.477577293333,0.415737238138,0.883818049293,,,-0.2891078924,-0.654003575,0.4439278522,0.5384908706,0.5235988,,,,,0
2017-06-11 02:34:03.838,2.2724158630140003,-1.3741829644600001,-0.79321160668000001,-0.043334282746,-0.198517865663,0.36913995141,139.0,,-0.3170540286,-0.612212638,0.503228914,0.5207038356,0.5235988,,,,1.0,0
2017-06-11 02:34:04.088,0.12011174620000001,-0.68849840870000012,-0.16193732360399996,-1.299709077,-0.566497268963,-1.8626182255,,,-0.2866803092,-0.6978775094,0.4046583596,0.510446144,0.5235988,,,,,0
2017-06-11 02:34:04.338,-3.4104452999999997,2.5086066919999999,1.9461144067099996,-0.09668762063,-0.7336270558,-0.45359389375,,,-0.1643753758,-0.8381210892,0.2716283504,0.441018317,0.5235988,,,,,0
2017-06-11 02:34:04.588,0.4406142091400001,-1.6751237902000002,0.5080764486899999,0.9615206675,1.5107800438,0.9685371941,140.0,,-0.2056883624,-0.7627874688,0.3505492002,0.4977321774,0.5235988,,,,1.0,0
2017-06-11 02:34:04.838,0.80300801319999993,1.5296997016,-0.062687625239999989,0.4065756627,0.324985828353,0.8518859921,,,-0.2912229664,-0.6360935792,0.4390403434,0.5628133332,0.5235988,,,,,0
2017-06-11 02:34:05.088,1.7660622162000001,-1.3309981636700001,-0.90903911168000007,-0.147379152788,-0.204821035806,0.17274088782,141.0,,-0.3062122786,-0.6158163424,0.47537921,0.5484943768,0.5235988,,,,1.0,0
2017-06-11 02:34:05.338,-0.57988904020000009,-0.79484150376000007,-0.17771067800000004,-1.04839500374,-0.547561681133,-1.61826159459,,,-0.2748618088,-0.7003625814,0.375369402,0.536534481,0.5235988,,,,,0
2017-06-11 02:34:05.588,-3.1197458440000001,1.3505327174939998,1.9925929356000001,-0.262731395114,-0.9428986407,-0.608671001924,,,-0.1696449288,-0.8278573268,0.2455601508,0.472147743,0.5235988,,,,,0
2017-06-11 02:34:05.838,-0.430547955516,-1.4985927919999997,0.20948774320000008,1.01636905178,1.38486911406,0.878703347921,142.0,,-0.1780467952,-0.7825441458,0.3108454476,0.5043332484,0.5235988,,,,1.0,0
2017-06-11 02:34:06.088,-0.057462941379999993,1.1713916285199999,0.27686907516600001,0.3346641754,0.8170801513,0.9408543647,,,-0.2791597152,-0.6394716152,0.410108123,0.5854340952,0.5235988,,,,,0
2017-06-11 02:34:06.338,1.4544699193200001,-1.14987971845,-0.63203711751999991,0.0841553954653,-0.0162871202406,0.452497332772,143.0,,-0.3283970736,-0.5787912802,0.4574873704,0.5894021838,0.5235988,,,,1.0,0
2017-06-11 02:34:06.588,0.073190625759999947,-1.2552973075900002,-0.82779833939999992,-1.2505720522,-0.535396670424,-1.6817641431,,,-0.3211350466,-0.6466561046,0.3790119864,0.572912792,0.5235988,,,,,0
2017-06-11 02:34:06.838,-3.5495465800000003,0.91242170293999991,2.0998421437800001,-0.811426466514,-1.36767043353,-0.855239878387,,,-0.2237266734,-0.8283166016,0.2095881638,0.4632806912,0.5235988,,,,,0
2017-06-11 02:34:07.088,-0.23647616320000003,-0.081987837860000051,-0.25772543127999997,0.902746482727,1.11713250556,0.657967415848,144.0,,-0.2196107568,-0.8255434666,0.2218348414,0.4662261218,0.5235988,,,,1.0,0
2017-06-11 02:34:07.338,-0.70225446675999992,0.31429044239999998,0.17126337239999997,0.6985869761,1.5127284964,1.1120194617,,,-0.307042563,-0.6519352266,0.3335466682,0.60297716,0.5235988,,,,,0
2017-06-11 02:34:07.588,0.95686933508000005,1.2615743297999999,-0.42804865868399999,0.3523492485,0.27764818327,0.7549854243,,,-0.3742796724,-0.5258966046,0.4120693766,0.6424761192,0.5235988,,,,,0
2017-06-11 02:34:07.838,1.7163817427999999,0.37987205772000004,-0.82009048276000018,0.109336549438,0.114117161113,0.4276572067,,,-0.390168287,-0.4830366348,0.4533652892,0.639361583,0.5235988,,,,,0
2017-06-11 02:34:08.088,1.9585372087600001,-1.6357713115999999,-0.58174547433999979,-1.2102083453,-0.78849230274,-1.22248461867,145.0,,-0.3910315258,-0.5452592248,0.4208928882,0.6055439428,0.5235988,,,,1.0,0
2017-06-11 02:34:08.338,-3.7331140763599997,0.97095566939999989,3.0750506479999999,0.1848787509,-1.2597499783,-1.27324002889,,,-0.2713424892,-0.7371583608,0.2880311674,0.5431390828,0.5235988,,,,,0
2017-06-11 02:34:08.588,1.0655168504799999,-1.1894203855999999,-1.3540421951999999,0.82528918116,-0.378999303123,0.184921337016,146.0,,-0.1670185574,-0.764829568,0.3782477704,0.4925214396,0.5235988,,,,1.0,0
2017-06-11 02:34:08.838,-1.9970206778799999,-0.027377949680000003,3.0904824941200002,0.9386716816,-0.35764092816,0.891834462005,,,-0.15081576,-0.734344484,0.4765158212,0.4551889902,0.5235988,,,,,0
2017-06-11 02:34:09.088,1.0521165498,0.96279571843999989,-0.46046003226999993,0.582840782652,0.037393120987,0.8099145625,,,-0.1724101,-0.65315466,0.6204421334,0.3967372422,0.5235988,,,,,0
2017-06-11 02:34:09.338,3.4633989393060007,-1.6777794887999997,0.77211970019999998,-1.23355775,-1.05909201271,-1.39375618757,147.0,,-0.13272845186,-0.7047868314,0.589194463,0.3611641488,0.5235988,,,,1.0,0
2017-06-11 02:34:09.588,-4.2003614325999994,0.92420403264800011,4.6084029739999997,1.04586814172,-1.67359770136,-1.32157851141,,,0.117013709226,-0.8009721512,0.48521865,0.3169989082,0.5235988,,,,,0
2017-06-11 02:34:09.838,1.5045229851999999,-1.2406151369900003,-0.28636879026000001,0.6130789594,-0.422578469588,-0.018345206693,148.0,,0.24296149,-0.7496918186,0.5751779252,0.2173814052,0.5235988,,,,1.0,0
2017-06-11 02:34:10.088,-1.287142569102,-0.12732799950000001,2.4834399913,1.1391912259,-0.21497850372,1.2200783426,,,0.2310493938,-0.7179123288,0.642244096,0.1225945143,0.5235988,,,,,0
2017-06-11 02:34:10.338,3.1036025190000003,0.72407496096000001,-0.8796322322100002,0.26105977543,-0.253180815024,0.62290636451,,,0.0409807186,-0.1371263264,0.1396900006,0.01855404988,0.5235988,,,,,0
2017-06-11 02:34:10.588,2.4676081923400002,-2.1708247640400002,3.7145342408000004,-1.00145396199,-1.84419945889,-1.97997871545,149.0,,0.0627708096,0.0261302684,-0.0661705294,0.021565045614,0.5235988,,,,1.0,0
2017-06-11 02:34:10.838,-2.5222582560000002,0.62921695191999993,2.7303278183999997,1.662279687,-1.53464052483,-0.68729024731,,,-0.585886117,0.5366936016,-0.5240870646,0.09271125193,0.5235988,,,,,0
2017-06-11 02:34:11.088,-1.4253759443999998,-0.19095064491999994,2.1912090812999998,0.43624952949,-0.309014961488,-0.08046122221,150.0,,-0.6590771512,0.4468344502,-0.565116425,0.214043409,0.5235988,,,,1.0,0
2017-06-11 02:34:11.338,0.97967609315999993,0.13798513239999999,1.4620222042,1.1628494075,0.21490397533,1.1629239364,,,-0.5698340404,0.4517469252,-0.5981369942,0.331350395,0.5235988,,,,,0
2017-06-11 02:34:11.588,5.2298688707999998,0.32353664582600006,-0.98687784845399984,-0.240499946196,-0.2155534587,0.11858900292,151.0,,-0.4802057536,0.4611160862,-0.6178153772,0.4179139318,0.5235988,,,,1.0,0
2017-06-11 02:34:11.838,0.40983163799999994,-3.6954266737100001,2.4205302646,-1.38292643799,-1.31610690727,-2.41403134444,,,-0.6641835472,0.404290193,-0.5484172562,0.2904752808,0.5235988,,,,,0
2017-06-11 02:34:12.088,-2.7028041985200004,1.6538145789999998,2.1088870974400002,0.436707362673,-1.8718919836,-1.5431050785,,,-0.8647922464,0.1850334569,-0.4107148024,0.2023998478,0.5235988,,,,,0
2017-06-11 02:34:12.338,-1.7463570849999999,-2.6034182511999999,1.0595010058200001,1.2206532932,1.61039566055,0.62359843713,152.0,,-0.8414896138,0.09357269,-0.4317277954,0.2986714328,0.5235988,,,,1.0,0
2017-06-11 02:34:12.588,0.38737623458999998,0.43372994895999994,0.98195194932000007,0.7100327683,0.670765726677,1.322451589,,,-0.700222718,0.1993652744,-0.5261590578,0.4355473142,0.5235988,,,,,0
2017-06-11 02:34:12.838,2.5863762653999998,-1.6194103486400002,-2.4404092437000005,-0.746677522406,0.13257400205,-0.441944959792,,,-0.6431185588,0.2530306798,-0.514657579,0.5058653682,0.5235988,,,,,0
2017-06-11 02:34:13.088,-2.8631453701999998,-0.11130798997999998,1.7170536373000003,-1.0543326975,-1.28273736893,-1.4803289353,,,-0.7691530284,0.2059140552,-0.505796828,0.3212879962,0.5235988,,,,,0
2017-06-11 02:34:13.338,-1.4403654691600003,0.5952371446000001,1.0024358743999999,0.823276847966,0.96986810472,0.70269681121,153.0,,-0.8253251068,0.17014097,-0.4502290854,0.286353087,0.5235988,,,,1.0,0
2017-06-11 02:34:13.588,0.17337402020000006,0.67804681699999991,0.39123576369999996,0.5692655509,0.907603013723,1.118940172,,,-0.6671088072,0.2713279442,-0.5681693272,0.39378969,0.5235988,,,,,0
2017-06-11 02:34:13.838,1.8501545883200001,-0.90822973140000018,-1.7893291496000001,0.281388377737,-0.142285894869,0.67138939699,155.0,,-0.5898184348,0.302902363,-0.5641214404,0.4911238052,0.5235988,,,,1.0,0
2017-06-11 02:34:14.088,0.29675713863999997,-1.7043411507999999,-1.1617556468000003,-1.2775734589,-0.760798827054,-1.9814521131,,,-0.6667437428,0.2795859306,-0.5497076056,0.4078734112,0.5235988,,,,,0
2017-06-11 02:34:14.338,-3.8046357440999996,1.9132913142999999,2.3726580079600001,0.3661693715,0.172783481,-0.04832784062,,,-0.7961997342,0.170319099,-0.4980855102,0.2950682412,0.5235988,,,,,0
2017-06-11 02:34:14.588,0.73405329688000009,-0.57118854027999999,-0.15111311294000004,0.45151768079,1.1818973254,1.080343913,156.0,,-0.6596985674,0.2563594958,-0.588726901,0.3842308196,0.5235988,,,,1.0,0
2017-06-11 02:34:14.838,1.6850849133999999,0.52310313835,-0.99410109075999997,0.360920278393,0.090075684315,0.711374315,,,-0.5735940968,0.3265289278,-0.594601353,0.4586591402,0.5235988,,,,,0
2017-06-11 02:34:15.088,1.6152260945999999,-1.6829303518999998,-1.1917142465999999,-0.99897766794,-0.393660557585,-1.332502588,,,-0.61398008,0.3275683158,-0.5696888984,0.4311519002,0.5235988,,,,,0
2017-06-11 02:34:15.338,-3.0682305247999992,1.1305721094799999,1.5197102344000002,-0.59895006859,-1.6167201388,-1.03971403,,,-0.791935703,0.2231831386,-0.4948968638,0.2672261788,0.5235988,,,,,0
2017-06-11 02:34:15.588,-0.68377709582000012,-0.77849903079000005,0.70102629000000005,0.9715077845,1.7957748386,0.9971569953,158.0,,-0.77213506,0.2245295694,-0.5030425762,0.3059913722,0.5235988,,,,1.0,0
2017-06-11 02:34:15.838,0.91390069868000012,1.6815422024000002,0.14776837279999999,0.3816078759,0.404925340708,0.9446128453,,,-0.6221212938,0.3249915412,-0.5948772438,0.389801435,0.5235988,,,,,0
2017-06-11 02:34:16.088,2.4588838341999999,-1.3185421302,-0.6516449569099998,0.255757449878,-0.381693050387,0.503774352854,159.0,,-0.57988546,0.340986118,-0.5810631618,0.4573266012,0.5235988,,,,1.0,0
2017-06-11 02:34:16.338,1.2026088518000002,-1.2436386482000001,0.33264609519999994,-1.2718345991,-1.7301239238,-1.8110003857,,,-0.6928867078,0.2702934154,-0.5151616938,0.4146051806,0.5235988,,,,,0
2017-06-11 02:34:16.588,-3.4691132360000001,1.0064232869599998,3.1010485560000003,-0.25776977803,-1.69246462075,-1.3677343309,,,-0.888098923,0.052416472666,-0.3554048924,0.2730501944,0.5235988,,,,,0
2017-06-11 02:34:16.838,-0.56545580301999987,-0.72366804387999994,0.23292655620000013,0.9846038997,1.36442303456,0.48150032038,160.0,,-0.8804543264,-0.021414536224,-0.3559365752,0.3061399698,0.5235988,,,,1.0,0
2017-06-11 02:34:17.088,-0.38288739499999996,0.53248329600000011,1.8107626261480001,0.8157279575,0.6857251032,1.263433915,,,-0.7587053312,0.09836208836,-0.4631824288,0.4425785934,0.5235988,,,,,0
2017-06-11 02:34:17.338,0.4435297894400001,1.0078013688,0.042810411190000001,0.612055210707,-0.500839906566,0.605387238687,,,-0.6960051162,0.12264024888,-0.4190379006,0.5690223058,0.5235988,,,,,0
2017-06-11 02:34:17.588,3.07691571352,-1.7386936379,-0.67841476986000004,-0.10147888038,-0.62819804936,0.3024349652,161.0,,-0.6806185208,0.12135264778,-0.342428837,0.6353291102,0.5235988,,,,1.0,0
2017-06-11 02:34:17.838,-0.53231312310000001,-1.7135682054799997,2.9848799619999999,-0.656945605552,-1.550409092,-2.336473808,,,-0.7678252692,-0.041985383184,-0.3137129728,0.549250636,0.5235988,,,,,0
2017-06-11 02:34:18.088,-3.9224674202800007,0.52965295890000008,3.3966423450000001,1.0991469392,-0.813140668567,-0.80712498001,,,-0.77930672,-0.3299913454,-0.255132238,0.4620427724,0.5235988,,,,,0
2017-06-11 02:34:18.338,-0.62957512680000005,-1.93215492164,0.33796942962000004,0.9007036116,1.1407137816,1.2415964176,162.0,,-0.6992492442,-0.2722569302,-0.2151157884,0.6201033822,0.5235988,,,,1.0,0
2017-06-11 02:34:18.588,0.53365711754800005,1.0245700572999998,0.12789592113999998,0.4295630635,0.183579781804,0.8657700103,,,-0.6641678058,-0.13393913482,-0.1562672634,0.7180947068,0.5235988,,,,,0
2017-06-11 02:34:18.838,3.617032773,-2.2970503835999998,-1.2215370272000001,-0.79875624328,-0.309568621454,-0.914662151173,163.0,,-0.6676180556,-0.12690123916,-0.12943069594,0.7199324846,0.5235988,,,,1.0,0
2017-06-11 02:34:19.088,-2.9757665813999994,-0.62533290428999999,2.0844848868000003,-1.1899359925,-2.249464554,-1.758009064,,,-0.741736191,-0.3419917532,-0.1862008294,0.5341165234,0.5235988,,,,,0
2017-06-11 02:34:19.338,-1.7937143586000002,1.2785152366000001,0.59103062599999989,0.70296299169,0.4092694107,0.23810431641,164.0,,-0.7494693044,-0.4843736506,-0.1445791032,0.4254595086,0.5235988,,,,1.0,0
2017-06-11 02:34:19.588,-0.11059028932000002,-0.15921287192,1.6115631942799995,0.837288624,1.41992711099,1.363794844,,,-0.715971049,-0.3199984656,-0.1524287404,0.5950848176,0.5235988,,,,,0
2017-06-11 02:34:19.838,0.56983073394600003,1.4339811832,0.13553904898000002,0.7575727066,-0.472045564916,1.1172579149,,,-0.6698535848,-0.1960662156,-0.060025827212,0.7117796202,0.5235988,,,,,0
2017-06-11 02:34:20.088,4.1343406128,-0.28102369161999996,-1.2625073739600001,-0.02788513493,-0.56080099466,0.29070170238,165.0,,-0.635082164,-0.1801956612,0.06054178874,0.7482100096,0.5235988,,,,1.0,0
2017-06-11 02:34:20.338,0.36833249418000008,-3.0984817231999999,3.2771720380399993,-0.93986417781,-2.069728416,-2.61888131,,,-0.6382516588,-0.4049874148,0.0381928208746,0.643207133,0.5235988,,,,,0
2017-06-11 02:34:20.588,-3.3582622465399998,0.97784969667999999,2.6091339365999993,0.658127452,-1.61551698615,-1.5889308263,,,-0.4829143314,-0.7207086432,0.023750777791,0.4880603418,0.5235988,,,,,0
2017-06-11 02:34:20.838,-1.6794738979700004,-3.1643535844000001,1.0260363913999999,1.12921013768,1.58479388232,1.05937927293,166.0,,-0.4100028884,-0.6949573616,0.11807815314,0.5726657548,0.5235988,,,,1.0,0
2017-06-11 02:34:21.088,1.3384779231800001,0.64325875531999999,-0.11956460397999998,0.66197110386,0.410823907313,1.2036283504,,,-0.4745291204,-0.5201826182,0.2369568144,0.6674895554,0.5235988,,,,,0
2017-06-11 02:34:21.338,2.0055226673999997,-2.3663516932800004,-0.53640196799999995,-0.79235725583,-1.03215448729,-1.41906468839,167.0,,-0.4748374246,-0.5387883514,0.2472345942,0.6460830212,0.5235988,,,,1.0,0
2017-06-11 02:34:21.588,-4.1871287116399998,2.0219363268000001,2.3991840297999998,-0.19706984128,-1.09569723725,-0.699641051882,,,-0.3893998532,-0.7443591448,0.1524130146,0.5165240824,0.5235988,,,,,0
2017-06-11 02:34:21.838,0.63161905240000005,-1.6032261570500004,1.6954074125999998,0.8248419958,1.4270607699,1.170249242,168.0,,-0.4043637228,-0.6656847758,0.2091179168,0.5865102956,0.5235988,,,,1.0,0
2017-06-11 02:34:22.088,1.0650220812,1.1133906062999999,0.074264952339999982,0.5005695298,-0.017472128056,0.832039533,,,-0.4499713928,-0.5403207204,0.3165275864,0.6358532338,0.5235988,,,,,0
2017-06-11 02:34:22.338,3.2542385848000004,-2.2201351547999995,-0.7663898346000001,-0.71707059263,-0.53656786608,-1.06187094105,169.0,,-0.447271627,-0.556514399,0.3376446812,0.6106151672,0.5235988,,,,1.0,0
2017-06-11 02:34:22.588,-3.6274414740000003,0.98164916259999979,1.81841065148,-0.474707377403,-1.6715960269,-1.30611871915,,,-0.3408990606,-0.7418655058,0.2183202564,0.5277716722,0.5235988,,,,,0
2017-06-11 02:34:22.838,-1.2012995735000001,-0.8344878577999999,0.72035370399999987,0.9752236702,1.7427622046,1.1012870371,170.0,,-0.3206111624,-0.7264089086,0.2514527378,0.5467167128,0.5235988,,,,1.0,0
2017-06-11 02:34:23.088,1.5571894156728001,1.1585437040800002,0.12178916774000001,0.50502007904,0.051490068353,0.9853172625,,,-0.4013227512,-0.5706819924,0.3509054612,0.6232703662,0.5235988,,,,,0
2017-06-11 02:34:23.338,3.440232226,-2.1204353971999996,-1.1757269921400002,-0.89146180141,-0.57722968946,-1.32566704986,171.0,,-0.3968953516,-0.592089895,0.3638490958,0.5956920704,0.5235988,,,,1.0,0
2017-06-11 02:34:23.588,-5.3802528910800005,2.2141675206799998,1.8331375065999997,0.02789577749,-0.67603610782,-0.491977203764,,,-0.2815022528,-0.7581542896,0.2526805864,0.5293032064,0.5235988,,,,,0
2017-06-11 02:34:23.838,1.5340914135999997,-2.4508730987599994,1.6660240678,0.585092943323,1.4189764999,1.09585952502,172.0,,-0.3446424536,-0.6344453316,0.3105815522,0.6147422512,0.5235988,,,,1.0,0
2017-06-11 02:34:24.088,1.9591715085999999,1.9214488236399998,-1.8652613179999997,0.364083041139,0.0115116726158,0.780126729277,,,-0.3907834246,-0.5397230394,0.4028722236,0.6269401842,0.5235988,,,,,0
2017-06-11 02:34:24.338,0.83299468780000008,-2.7356512764000001,-0.43093824792000007,-1.08984760131,-0.636393305626,-1.66266933667,173.0,,-0.378018632,-0.6104282714,0.3463940278,0.5988916714,0.5235988,,,,1.0,0
2017-06-11 02:34:24.588,-2.9541206027400007,2.1762516760000001,2.9430678219999997,-0.621799053148,-1.5587032958,-1.2280531291,,,-0.2853475002,-0.7991556858,0.2096692496,0.4786226452,0.5235988,,,,,0
2017-06-11 02:34:24.838,0.39608829443999999,0.49021636247999995,-0.44077455798000004,1.11444702756,0.86793139496,0.63158386815,174.0,,-0.2289238266,-0.8223871262,0.2394058544,0.4590681236,0.5235988,,,,1.0,0
2017-06-11 02:34:25.088,0.13537992330000001,0.75744367521999989,0.76696294459999992,0.56782817219,1.4553291928,1.513058565,,,-0.3275067758,-0.6521574968,0.3604843384,0.574944715,0.5235988,,,,,0
2017-06-11 02:34:25.338,1.2970907850140001,1.2143972035999999,0.41744586364000003,0.5333204557,-0.390455733905,0.7937946362,,,-0.3813400144,-0.5493517906,0.4588485058,0.5841530888,0.5235988,,,,,0
2017-06-11 02:34:25.588,3.5602685140000001,-0.13339850149999999,-1.21506810468,-0.299815749763,-0.6092246581,0.041247422393,175.0,,-0.3600629596,-0.5384945402,0.5350839026,0.5414181328,0.5235988,,,,1.0,0
2017-06-11 02:34:25.838,-1.7703828266799999,-1.3551863763199998,1.93631811782,-0.96327747053,-0.9823786225,-1.919634218,,,-0.276641963,-0.697456525,0.4119571152,0.5101405708,0.5235988,,,,,0
2017-06-11 02:34:26.088,-0.91973520279999976,0.99547334620000016,-1.10092685,1.03189895411,-0.436015289837,-0.238242729037,176.0,,-0.11477090014,-0.7753419284,0.3917020596,0.479006379,0.5235988,,,,1.0,0
2017-06-11 02:34:26.338,-3.1601930120800001,-2.6097678274400007,3.1709775287999999,0.434812154444,0.7948593515,0.44381972424,,,-0.08049629402,-0.7324419864,0.44659517,0.5056473044,0.5235988,,,,,0
2017-06-11 02:34:26.588,0.13088690102000006,1.11553926454,-0.68206063598,0.488332084152,0.870611163465,0.938269557071,,,-0.180331847,-0.6137722026,0.5462407858,0.5383322784,0.5235988,,,,,0
2017-06-11 02:34:26.838,1.01738679308,-2.5865624404200003,-1.479435948796,-1.27319956369,-0.287602091347,-1.03724185855,177.0,,-0.2231571086,-0.6165816162,0.5153495518,0.547459095,0.5235988,,,,1.0,0
2017-06-11 02:34:27.088,-4.6045005960000003,0.032353277780000037,2.4915831737999996,-0.297391502141,-0.452518630667,-0.744995189581,,,-0.1612444698,-0.750237196,0.3210452664,0.553353503,0.5235988,,,,,0
2017-06-11 02:34:27.338,0.1693115402,-1.8944841075200001,-2.6576943514,0.350884671168,0.105924264851,0.353203871069,178.0,,-0.1557155652,-0.7278097328,0.3842770418,0.5455328046,0.5235988,,,,1.0,0
2017-06-11 02:34:27.588,-1.7003144348399999,-0.21354667095700003,2.9341052824,0.131918275542,0.961973123182,1.17085268804,,,-0.2224246874,-0.6642111348,0.3850023306,0.5957115734,0.5235988,,,,,0
2017-06-11 02:34:27.838,1.6045295402199999,-1.7648121964000003,-0.91250959034000001,0.243587648144,-0.20865404293,0.20364983833,,,-0.2837990616,-0.5797547588,0.5200053918,0.5588910028,0.5235988,,,,,0
2017-06-11 02:34:28.088,1.3313113641999998,-1.2507140051400001,-0.95341100713999993,0.01319193635,-0.506840757,-1.9235949857,,,-0.1688643654,-0.6518182486,0.4951684608,0.5441223026,0.5235988,,,,,0
2017-06-11 02:34:28.338,-3.3750796913999999,-3.6147954153999997,0.15054791423999997,0.05315103963,4.272483513,-5.4316596,,21.396,0.0252096843484,-0.4762452644,0.089792550454,0.8327316984,0.5235988,5.0,0.0,0.0,,0
2017-06-11 02:34:28.588,1.1063569876200001,-1.3317563083999999,-1.3334321298,0.398792524653,0.99995721549,-0.3757092976,,250.735,0.2723042588,-0.14282450498,-0.174066902,0.9342391136,0.5235988,,,,,0
2017-06-11 02:34:28.838,0.69315758581999987,-0.72655713639399977,-0.40861185127999994,0.326274146117,0.43986959051,-1.31614843059,179.0,312.9015,0.3035239158,-0.08683427064,-0.2486235754,0.9138215292,0.5235988,,,,1.0,0
2017-06-11 02:34:29.088,0.32016371419999989,0.85123136460000015,0.59352395884000009,-0.38422709587,0.98270868879,0.180886028858,180.0,292.869,0.3486812736,0.041702342316,-0.2660795842,0.8970322824,0.5235988,,,,1.0,0
2017-06-11 02:34:29.338,0.36997768714705886,0.59078040088235284,-0.48659511823529406,-0.523247127126,0.309588097902,0.196415683218,,294.043,0.37411443,0.121180962676,-0.233089245588,0.889115399706,0.5235988,,,,,0
