,lin_acc_x,lin_acc_y,lin_acc_z,gyr_x,gyr_y,gyr_z,step_count_value,light_light_intensity,rotation_x,rotation_y,rotation_z,rotation_theta,rotation_phi,proximity_x,proximity_y,proximity_z,step_detect_value,labelwalkupstairs
2017-06-11 02:33:34.588,-0.25853924400000006,-0.34425560636999997,-0.5858823675,-0.041737197325,-0.011499020575,-0.017940605025,,38.833,-0.1024940014,0.197458981,0.961656176,0.1603295165,0.5235988,,,,1.0,0
2017-06-11 02:33:34.688,1.955153752857143,-1.1496255464761904,1.682646466666667,0.136364579925,-0.11690673765,1.17713268775,,,-0.10799205455,0.1905690215,0.9672910985,0.12625277985,0.5235988,,,,,0
2017-06-11 02:33:34.788,-0.37306911350000049,-2.6153082650000004,-4.6307613129999989,-0.912788227075,-2.3290846475,0.679480473,,19.863998,-0.028187812375,0.190290229,0.973175286,0.11965259005,0.5235988,,,,,0
2017-06-11 02:33:34.888,-2.5239802105263163,-8.746989499999998,-5.3987627368421052,0.050707502225,-6.0923797075,4.6138234925,,,-0.0487678813333,0.0350809304762,0.246469967619,0.0514323949524,0.5235988,,,,,0
2017-06-11 02:33:34.988,9.174068130238096,-8.7258745171428576,-1.1889004033333332,2.41213313,-7.07767567535,7.17943669,,8.729,-0.545872309,-0.11131240225,-0.7687131625,0.2701094597,0.5235988,,,,,0
2017-06-11 02:33:35.088,15.028689600000002,4.4038217421052623,-1.2456400784210528,1.0343797614,1.71979608775,1.8642525735,,,-0.603228762105,-0.0498394092105,-0.639135264737,0.472765998421,0.5235988,0.0,0.0,0.0,,0
2017-06-11 02:33:35.188,3.6739063815000002,4.2301179099999997,-1.4792335514999997,-0.082542765275,0.679693444125,-0.35327556055,,0.0,-0.563326709,-0.01174821599,-0.6598140485,0.49704645,0.5235988,,,,,0
2017-06-11 02:33:35.288,-8.1083316199999995,3.8262995349999995,-2.0761750028449999,0.39131283485,-1.18227000075,0.931128121625,,,-0.551900429,-0.0253710815,-0.663130496,0.504461493,0.5235988,,,,,0
2017-06-11 02:33:35.388,0.19886956900000013,-0.78893675900000004,-0.59670730700000008,-0.82912751275,-0.365014148325,2.19112299,,,-0.5996867985,-0.0002831915,-0.5836746885,0.5463152385,0.5235988,,,,,0
2017-06-11 02:33:35.488,0.40738990199999991,-0.38861880900000007,0.17429636899999998,-0.538431129,0.2531116039,2.35192297,,,-0.6099877045,0.09401467445,-0.5240915155,0.5858070115,0.5235988,,,,,0
2017-06-11 02:33:35.588,1.204230812,0.60520714530000008,-0.67758418600000003,-0.4195014145,0.67351803875,1.8753523125,,,-0.6016993315,0.183223517,-0.4593599925,0.626496279,0.5235988,,,,,0
2017-06-11 02:33:35.688,1.8713169695,0.65536400000000006,-0.47650812349999982,-0.735431767225,1.8068373125,-0.109240724375,,,-0.5835905715,0.2654108395,-0.458334212,0.6147987835,0.5235988,,,,,0
2017-06-11 02:33:35.788,1.1115467174,-3.2598282023000005,-0.12596387684999993,-0.25864817425,1.86765968775,-1.0324366395,,,-0.5603385735,0.3236316625,-0.523594077,0.5531718475,0.5235988,,,,,0
2017-06-11 02:33:35.888,-0.29747076179999982,2.6678942354999995,0.14161064136499985,-0.554284614846,-1.32904907885,0.564986456069,,,-0.5786489325,0.3267091755,-0.532682657,0.5228640165,0.5235988,,,,1.0,0
2017-06-11 02:33:35.988,-0.0063592609999999885,1.2668592889999997,-0.55164467150000018,0.0123611900488,-0.205647622361,-0.27150472862,,,-0.596261154,0.3118959325,-0.509413005,0.5363164195,0.5235988,,,,,0
2017-06-11 02:33:36.088,-1.13886012345,5.9235397050000005,0.94818852699999989,0.136202822205,-0.556687051744,0.458787009205,,,-0.617701945,0.3028401645,-0.4887825205,0.5362969625,0.5235988,,,,,0
2017-06-11 02:33:36.188,4.9126707549999997,-4.9346519334999996,0.53269249380000017,0.72558306475,-0.212146334135,-0.05611097235,,,-0.5928545735,0.306013964,-0.482405482,0.5674406335,0.5235988,,,,,0
2017-06-11 02:33:36.288,2.1700740930000002,-4.9149026249999999,-2.3940161149999999,-0.0501978605122,-0.218839817371,0.280100427902,,,-0.5865868945,0.2851860225,-0.473361734,0.5919887645,0.5235988,,,,1.0,0
2017-06-11 02:33:36.388,2.9225895799999995,0.41129529900000011,-1.934849276,-1.61062772436,-0.361842488205,-1.14965664821,,,-0.624511535,0.2811617365,-0.4649797955,0.5601798795,0.5235988,,,,,0
2017-06-11 02:33:36.488,-0.29068078500000005,-2.2836065299999997,1.4860697475,-1.11295642325,-0.07828386675,-1.67744668,,,-0.684289891,0.266959293,-0.4817438045,0.4770012405,0.5235988,,,,,0
2017-06-11 02:33:36.588,-1.345268457,-0.86473510755000016,0.36207508600000005,-1.081094545,-1.423509921,-1.8706142925,,,-0.749480759,0.208214153,-0.4760693005,0.4084460945,0.5235988,,,,,0
2017-06-11 02:33:36.688,-2.7811330950000004,2.0135022673200003,3.0984141799999998,-0.7138977155,-1.7016425575,-1.3180489555,,,-0.8180599965,0.1391618825,-0.439034216,0.3428194965,0.5235988,,,,,0
2017-06-11 02:33:36.788,-4.3885214000000001,4.3777418549999991,2.8532124399999996,0.815951543025,-0.671495061575,0.12246991959,,,-0.8559179795,0.086773982,-0.3860718425,0.332337123,0.5235988,,,,,0
2017-06-11 02:33:36.888,0.82576683300000009,-2.9935409455000004,0.26767203649999999,1.52404651025,1.87591130217,0.81257104925,,,-0.808998253,0.10525777445,-0.4208161295,0.3943667975,0.5235988,,,,1.0,0
2017-06-11 02:33:36.988,-1.9192106685000003,-1.700165913,0.90550082399999998,1.07861905525,1.08423548625,1.45750123775,,,-0.7444499265,0.1432545145,-0.4576831445,0.4633520375,0.5235988,,,,,0
2017-06-11 02:33:37.088,0.83544420250000007,1.7524785429999998,0.720524885,0.36051568425,0.65182427925,1.35180071675,,,-0.6933124675,0.202842637,-0.4615628695,0.514425488,0.5235988,,,,,0
2017-06-11 02:33:37.188,1.0569121216000001,2.4655690678500002,0.18179817500000001,0.76479153825,-0.4239466407,0.75736508775,,,-0.662974441,0.224638623,-0.450547239,0.553820639,0.5235988,,,,,0
2017-06-11 02:33:37.288,1.4122109889999999,-0.27727793305000004,-0.7487211975000001,0.17333713674,-0.053608874675,0.565155707,,,-0.6511607205,0.2218469175,-0.426908219,0.5869110245,0.5235988,,,,,0
2017-06-11 02:33:37.388,3.1047328969999999,-2.8825082749999997,-0.53898873100000011,-0.0129364016,-0.51556618075,0.32836100865,,,-0.647861464,0.2339714085,-0.406964909,0.599839048,0.5235988,,,,,0
2017-06-11 02:33:37.488,4.8919162969999999,-2.64953554,-4.6688073414999991,-1.4995046115,-0.059677802405,-1.52218323825,,,-0.675525338,0.219625693,-0.3972408315,0.580258452,0.5235988,,,,,0
2017-06-11 02:33:37.588,-4.5064900750000003,-1.5598338477,3.1696568550000004,-1.00246465,-0.77184534095,-1.98105287,,,-0.7407540945,0.1758597185,-0.4319966965,0.4824113985,0.5235988,,,,,0
2017-06-11 02:33:37.688,-2.3972672160000004,0.59034815249999995,1.6209673160000002,-1.3579228915,-1.621734975,-1.5772561025,,,-0.809146783,0.10423208395,-0.400237237,0.415515102,0.5235988,,,,,0
2017-06-11 02:33:37.788,-4.0805299450000003,3.1131207750000001,2.5274264275,-0.445560546065,-0.98521611275,-0.802189982925,,,-0.8578822035,0.04437068765,-0.369082584,0.3541499265,0.5235988,,,,,0
2017-06-11 02:33:37.888,-1.9164818699999997,2.5556511373499999,-0.18220959000000006,0.9406041585,1.17596147538,0.606786436175,,,-0.8583947565,0.03246768185,-0.359850704,0.363371937,0.5235988,,,,,0
2017-06-11 02:33:37.988,-0.13602136000000001,-2.7492033945000003,2.0353634340000002,1.374479351,1.6972505605,1.057643986,,,-0.7954173175,0.08171804015,-0.421957296,0.4259812075,0.5235988,,,,1.0,0
2017-06-11 02:33:38.088,-1.0062421409,-1.324019729,0.62201205910000001,0.73692237475,1.61878036,1.39510838,,,-0.7298064355,0.14231281205,-0.4569564255,0.4869982315,0.5235988,,,,,0
2017-06-11 02:33:38.188,1.3792248020000002,2.0611918075000002,1.2094204200500001,0.263918560025,0.71115604245,1.09903515575,,,-0.678518603,0.2086819795,-0.4739276165,0.520670397,0.5235988,,,,,0
2017-06-11 02:33:38.288,1.7998716989999999,1.3685435575,-0.35982786364999997,0.5176157735,-0.0805464008,0.60904897625,,,-0.6531558005,0.227804454,-0.4692390955,0.548842218,0.5235988,,,,,0
2017-06-11 02:33:38.388,2.1867665385000001,-1.9042068780000001,-1.418037875,-0.01815355025,0.096623741175,0.4974924745,,,-0.6402872955,0.236492321,-0.4598937805,0.5679230715,0.5235988,,,,,0
2017-06-11 02:33:38.488,3.278857285,-2.0079459774999999,-2.6964684499999998,-0.57673459025,-0.55261859,-0.086535476475,,,-0.6486903555,0.245619146,-0.4387926575,0.571136929,0.5235988,,,,,0
2017-06-11 02:33:38.588,1.9398328647619045,-2.2515770333333336,0.088793907619047568,-1.4226581225,-0.0144003964925,-2.15614678,,,-0.6962125115,0.224369964,-0.4453855015,0.5148508565,0.5235988,,,,,0
2017-06-11 02:33:38.688,-4.3499776389473679,-0.35238223068421054,-0.05172898684210521,-1.0808549785,-1.67643518625,-1.7361662225,,,-0.7592193535,0.166772241,-0.4512490175,0.4365173565,0.5235988,,,,,0
2017-06-11 02:33:38.788,-2.1623676784999999,1.6686585905000002,3.9461527300000001,-1.12655826475,-1.541907265,-1.34397499875,,,-0.83882071,0.10656560915,-0.387958443,0.3651429865,0.5235988,,,,,0
2017-06-11 02:33:38.888,-3.8219677300000008,3.61274922,2.8514191000000002,0.4909177972,-0.71035750125,0.058613078925,,,-0.8768161045,0.0578136787,-0.3385102665,0.3360827455,0.5235988,,,,,0
2017-06-11 02:33:38.988,0.87396168525000006,-3.2519888287500001,0.71757789999999966,1.29571636425,2.54966889625,1.023546187,,,-0.831520287143,0.0937358797143,-0.37954114619,0.391436830952,0.5235988,,,,,0
2017-06-11 02:33:39.088,-2.3458308754999999,-0.14565729500000005,1.2939591579999998,0.86255985675,1.5925881525,1.38994446825,,,-0.76160856,0.1548564465,-0.4403891285,0.448098986,0.5235988,,,,1.0,0
2017-06-11 02:33:39.188,1.6719577889499999,0.97432063849999984,1.3596879449999999,0.425117835,1.03368768325,1.22786680075,,,-0.702135995789,0.223668257895,-0.468420760526,0.486890741053,0.5235988,,,,,0
2017-06-11 02:33:39.288,0.79668747204000001,1.67044484,0.30884725850000005,0.49765219175,0.13615163225,0.7536385545,,,-0.6630951295,0.2549150225,-0.4783550945,0.5160655025,0.5235988,,,,,0
2017-06-11 02:33:39.388,1.1130883889999998,1.0375793190000002,0.26233249175000006,0.407682973,0.1276604561,0.64048497275,,,-0.642201601,0.2631345155,-0.4700778045,0.545234886,0.5235988,,,,,0
2017-06-11 02:33:39.488,2.8372262949999998,-1.3268464563,-0.16123060260000002,0.192715115275,-0.131440227475,0.598801004,,,-0.6218766495,0.274079395,-0.4658480065,0.566603862,0.5235988,,,,,0
2017-06-11 02:33:39.588,3.2854007700000003,-2.6519687799999998,-4.5684719299999994,-0.94435730775,-0.15624830273,-0.65493859445,,,-0.6325814415,0.272417742,-0.4477394,0.5700000065,0.5235988,,,,,0
2017-06-11 02:33:39.688,0.684019971,-1.9446955200000002,2.9549637657999996,-1.18264262275,-0.25646548955,-2.3584710325,,,-0.69040027,0.252025889,-0.475070549,0.482140314,0.5235988,,,,,0
2017-06-11 02:33:39.788,-2.5785773215000001,-0.16386129505000002,-0.68573560805000011,-1.07711889205,-1.76345661026,-1.56661911282,,,-0.756994743,0.1803019195,-0.4664118005,0.4189190475,0.5235988,,,,,0
2017-06-11 02:33:39.888,-2.921883615,1.3724857884999999,3.4676166299999998,-0.87054528825,-1.6816789575,-1.363565932,,,-0.830710047,0.1106656603,-0.415321984,0.3521241295,0.5235988,,,,,0
2017-06-11 02:33:39.988,-3.556868165,3.529796890000001,2.80893864,0.533504831951,-0.433888180049,-0.122677027439,,,-0.865559729,0.0577633039,-0.3725744185,0.3293315995,0.5235988,,,,,0
2017-06-11 02:33:40.088,1.4078986,-2.1014349784999999,0.93118049999999997,1.414246805,1.964576228,0.75241411425,,,-0.8253074415,0.0769325482,-0.408765916,0.3798323415,0.5235988,,,,,0
2017-06-11 02:33:40.188,-3.9148001325000004,-1.2146772882000003,-0.32978182550000001,0.944901969744,1.36953588872,1.08391673487,,,-0.7650429015,0.10842840395,-0.455433275,0.4412073075,0.5235988,,,,1.0,0
2017-06-11 02:33:40.288,1.0062767960000001,-0.80937641164999996,1.551665632,-0.067130874775,1.67475826125,1.6801883475,,,-0.697313986,0.1968848015,-0.4904621565,0.4827228215,0.5235988,,,,,0
2017-06-11 02:33:40.388,1.6049502625500001,2.2317695187500002,0.86349639157499991,0.161944579975,0.092364844225,0.87546964825,,,-0.6591865995,0.2587670065,-0.4925394705,0.5057521725,0.5235988,,,,,0
2017-06-11 02:33:40.488,0.8607630327500001,2.759686565,-0.2938823718500001,0.2421449476,-0.010194736515,0.27209032425,,,-0.6473715925,0.2706183575,-0.4806086085,0.525987707,0.5235988,,,,,0
2017-06-11 02:33:40.588,0.16721762900000001,1.01824868075,-0.060587344850000016,0.195403544775,-0.363417057125,0.2937042271,,,-0.642015097,0.266496392,-0.4731162575,0.541197424,0.5235988,,,,,0
2017-06-11 02:33:40.688,2.3851996496999996,-1.5147788681999999,-0.54090085069999994,0.41636047625,0.5253350215,1.04177958725,,,-0.6244026745,0.2840879245,-0.4608919825,0.562706777,0.5235988,,,,1.0,0
2017-06-11 02:33:40.788,3.1881553249999999,-2.2880449949999999,-2.2375324555000002,0.0784968109,-0.471220403025,0.61748691725,,,-0.5978162065,0.305306858,-0.4385279745,0.5974185215,0.5235988,,,,,0
2017-06-11 02:33:40.888,2.9776865521999993,-0.57364263199999999,0.74957550649999993,-1.2233150995,-0.481468371,-1.38927903275,,,-0.6297121845,0.2976933315,-0.427822006,0.575283878,0.5235988,,,,,0
2017-06-11 02:33:40.988,-1.6205509172500001,-1.6767869804999997,0.80932952700000005,-1.34618427975,-1.15751514125,-1.4810316575,,,-0.7031795675,0.246504497,-0.4224450715,0.515207856,0.5235988,,,,,0
2017-06-11 02:33:41.088,2.3035428746499997,1.1389272335000002,4.0761519699999997,-0.6831271866,-1.3131246095,-1.9011186675,,,-0.7642893865,0.1859103345,-0.407042148,0.463069301,0.5235988,,,,,0
2017-06-11 02:33:41.188,-0.2303847228,0.28203632179999999,4.4481732449999996,0.70665758875,-2.57319932,-2.557920505,,,-0.80366232,0.05164102107,-0.394711258,0.4392653835,0.5235988,,,,,0
2017-06-11 02:33:41.288,-2.5719953149999997,-0.70564776300000009,2.5664642750000004,1.167789726,-2.3265559125,-2.3445231425,,,-0.81098783,-0.12084350655,-0.361403993,0.441089011,0.5235988,,,,,0
2017-06-11 02:33:41.388,-3.1564457300000002,0.043829025100000009,1.1701471325000001,1.4609615975,-1.5891544025,-1.8347064875,,,-0.796813964,-0.2773825495,-0.3096398775,0.4365333425,0.5235988,,,,,0
2017-06-11 02:33:41.488,-1.8672498430000002,2.8648820770000003,1.3221352405000002,1.7613735875,-0.7777545617,-0.435498900875,,,-0.7598074085,-0.3760730115,-0.263165633,0.4595162845,0.5235988,,,,,0
2017-06-11 02:33:41.588,-0.60546588074999996,-5.5998862604999999,-0.22247245950000019,1.7295649475,0.736975626625,0.549317938075,,,-0.7210630185,-0.391574268,-0.2171272415,0.5279847575,0.5235988,,,,,0
2017-06-11 02:33:41.688,-2.3650620235499997,-3.0111983854999993,1.5192623518000001,1.2890352175,0.7327433395,1.18080598625,105.0,,-0.690839776,-0.350522613,-0.187239371,0.603301771,0.5235988,,,,1.0,0
2017-06-11 02:33:41.788,-1.6110274539999996,0.18540675165000001,0.98606100528500007,0.7066043555,0.1733903693,1.639675585,,,-0.678178591,-0.2945792715,-0.143037282,0.65737921,0.5235988,,,,,0
2017-06-11 02:33:41.888,0.1513200945,1.0806415413999999,0.55030117830000003,0.84174449925,-0.7384396145,0.972120004,,,-0.6720955735,-0.260666698,-0.0763016885,0.688514339,0.5235988,,,,,0
2017-06-11 02:33:41.988,0.048579563149999991,1.0112548816999998,-0.23350995399999994,0.6238752675,-0.085417514225,0.7024785425,,,-0.656477087,-0.254706995,-0.02275989265,0.7095443385,0.5235988,,,,,0
2017-06-11 02:33:42.088,3.1175196874999997,-1.8969713225,-0.6724429972599999,0.278957793625,-0.352423780275,0.6525695925,106.0,,-0.648698244,-0.2321683705,0.00969246105,0.724604773,0.5235988,,,,1.0,0
2017-06-11 02:33:42.188,2.7417699449999997,-3.4290269100000002,-4.427163779999999,-0.86926762315,-0.961073481775,-0.676579115875,,,-0.654558469,-0.2602141855,0.0419983041,0.7082058035,0.5235988,,,,,0
2017-06-11 02:33:42.288,0.39683781749999997,-1.0765110359499999,3.8526552470000004,-1.28749135525,-0.3340572848,-2.2880661425,,,-0.675278234,-0.328322831,-0.017226053175,0.659041999,0.5235988,,,,,0
2017-06-11 02:33:42.388,-3.9328071300000005,0.077706346125000006,0.10068659019999997,-0.8516464355,-2.033596985,-1.7862348975,,,-0.664906333,-0.427219281,-0.05614336655,0.6087108265,0.5235988,,,,,0
2017-06-11 02:33:42.488,-3.1946067850000004,0.63974753699999987,3.5422957850000003,-0.66494700242,-1.50272542,-1.536743345,,,-0.656961362,-0.5359316055,-0.062830563,0.5254786535,0.5235988,,,,,0
2017-06-11 02:33:42.588,-4.3849827550000011,2.3093567935000001,2.0482525159999998,0.801870570675,-0.201978220125,-0.013335668025,,,-0.6344564065,-0.595375872,-0.05303608285,0.4898511495,0.5235988,,,,,0
2017-06-11 02:33:42.688,0.9837392500000004,-4.3947458815000005,0.18856950799999983,1.0924604705,2.1253762535,0.97991910475,107.0,,-0.624710631,-0.539130821,-0.04257093715,0.561695393,0.5235988,,,,1.0,0
2017-06-11 02:33:42.788,-2.7205730338,-0.63909877500000012,1.0318971024999999,0.78241272575,1.48100503775,1.35337119025,,,-0.6177169155,-0.4633167865,-0.03564016175,0.633554258,0.5235988,,,,,0
2017-06-11 02:33:42.888,-0.25519577050000009,1.258813964,0.91213311450000023,0.366531378,1.37046002575,1.328776065,,,-0.6253232955,-0.3673065365,-0.02731416535,0.687369392,0.5235988,,,,,0
2017-06-11 02:33:42.988,0.42941140299999991,2.01475004,0.18881003145999997,0.386186751053,0.318576748816,0.810619525263,,,-0.6244589805,-0.307174816,-0.018421538925,0.7177643605,0.5235988,,,,,0
2017-06-11 02:33:43.088,0.95272070049999991,0.97677879499999987,-0.71247857875000009,0.472867478293,-0.137609136439,0.543580758049,,,-0.618475616,-0.2891991415,0.006549330862,0.730586042,0.5235988,,,,,0
2017-06-11 02:33:43.188,-0.072315612649999986,0.7051944081,0.031891239800000012,0.2194929355,-0.4978917525,0.26679331825,,,-0.613992232,-0.2997185955,0.02882363545,0.7295715035,0.5235988,,,,,0
2017-06-11 02:33:43.288,-0.65485871849999999,0.46552722450000006,-0.11928766595000004,0.237247213875,-0.119408841383,0.39549187825,,,-0.608382127,-0.303869454,0.05523582225,0.7310501205,0.5235988,,,,,0
2017-06-11 02:33:43.388,1.17861137975,-0.97942962249999999,0.2173495815,0.1187433879,0.26205529175,0.73609721525,,,-0.6106001835,-0.2812301915,0.07642533355,0.736274156,0.5235988,,,,,0
2017-06-11 02:33:43.488,1.9921209959999999,-3.6424834820000003,-1.43441110835,-0.135033674087,-0.4391189564,0.5590867824,108.0,,-0.616940953,-0.261572986,0.1053906053,0.7346514315,0.5235988,,,,1.0,0
2017-06-11 02:33:43.588,2.8316982055,0.46233165070000004,-0.44686177850000008,-1.19110718975,-0.3113786487,-0.837778397545,,,-0.644743282,-0.283310883,0.1020434039,0.702155244,0.5235988,,,,,0
2017-06-11 02:33:43.688,-1.4233241047,-2.2000577281,1.649298717,-0.75632697875,-0.963895003,-1.893426035,,,-0.649996433,-0.3593746195,0.05497696305,0.6665293195,0.5235988,,,,,0
2017-06-11 02:33:43.788,-0.13569168190000008,-0.26520494467500005,2.39002391,-0.795349124,-0.8861967495,-1.65223933,,,-0.6418313395,-0.439821512,0.023880154745,0.62711702,0.5235988,,,,,0
2017-06-11 02:33:43.888,-1.0723336457100001,1.5237910101999999,3.7838755050000001,0.157685686582,-1.69080896575,-1.987707375,,,-0.606613524,-0.529452172,-0.0072558589925,0.5918619995,0.5235988,,,,,0
2017-06-11 02:33:43.988,-1.727906505,-1.1047224070000001,4.0833167100000001,0.75204147,-2.212470685,-2.1090061125,,,-0.530868554,-0.647386105,0.0065317017215,0.5450057915,0.5235988,,,,,0
2017-06-11 02:33:44.088,-1.7400300245,-1.1488728715000001,2.67076359,1.145590231,-2.06061437,-1.9426162875,,,-0.430909051,-0.7415665965,0.0441575519,0.510406447,0.5235988,,,,,0
2017-06-11 02:33:44.188,-2.6423976050000002,0.85385626683999993,1.3029344540000001,1.2574661425,-1.08338369525,-1.1201965495,,,-0.334664173,-0.807633978,0.08164428245,0.4777216795,0.5235988,,,,,0
2017-06-11 02:33:44.288,1.7535678344000001,1.0389383665000005,1.8277112895000003,1.84351707,-0.5448993335,-0.03455030805,,,-0.2715957035,-0.827486995,0.14250852335,0.469527875,0.5235988,,,,,0
2017-06-11 02:33:44.388,-4.1042829099999993,-3.7888674413499999,1.0236496915000002,1.5389260275,0.88843264575,0.971002036,109.0,,-0.2505232685,-0.8022300655,0.230323709,0.4894082695,0.5235988,,,,1.0,0
2017-06-11 02:33:44.488,0.35086803599999994,-3.0056400174999998,1.9566165014999997,0.88888517225,0.793885134,1.4415569775,,,-0.2846593175,-0.740043116,0.297464487,0.5311063445,0.5235988,,,,,0
2017-06-11 02:33:44.588,0.18171580155,0.46177525631999999,2.12154825,0.855000312,-0.239163719165,1.5519156775,,,-0.322778314,-0.6940841465,0.365154042,0.529182851,0.5235988,,,,,0
2017-06-11 02:33:44.688,0.099028051924999999,0.6776529805,1.1339892774,1.06246186,-1.02719286875,0.87584229,,,-0.3155606315,-0.6681633925,0.44244547,0.5075334655,0.5235988,,,,,0
2017-06-11 02:33:44.788,0.96313421239999997,0.46504324325000013,0.31435199940000003,0.71014455775,-0.179246352785,0.79968787725,,,-0.3020884435,-0.649260763,0.503827609,0.482821102,0.5235988,,,,,0
2017-06-11 02:33:44.888,2.5367641095,-1.5890897234999999,-2.0480895485999993,-0.010673862525,-0.56464996675,0.1837714369,,,-0.3031076065,-0.6359495205,0.537694152,0.463115145,0.5235988,,,,,0
2017-06-11 02:33:44.988,3.3048608852500001,-2.6586816925000001,-3.1506769439999998,-1.5880364485,0.124572754875,-1.721286711,,,-0.2912596545,-0.669708855,0.5035681805,0.46047162,0.5235988,,,,,0
2017-06-11 02:33:45.088,-4.0489635500000007,-1.5827818615,3.4061407443000009,-0.84600339625,-0.62491336175,-2.094020105,,,-0.251174943,-0.7314998975,0.4011153795,0.489894657,0.5235988,,,,,0
2017-06-11 02:33:45.188,-2.0750751799999998,0.38863320235000004,1.9601514694999995,-1.5067447475,-1.5354390625,-1.525723445,,,-0.1980535555,-0.8022295995,0.333374989,0.452202013,0.5235988,,,,,0
2017-06-11 02:33:45.288,-3.0568866699999999,1.5845551800000002,3.0255870950000001,-0.55418905325,-1.455425015,-0.8911477041,,,-0.144885145,-0.864374591,0.2706474565,0.3973418835,0.5235988,,,,,0
2017-06-11 02:33:45.388,-2.4036444499999998,3.0376743090000002,-0.024571250000000065,0.84171787225,0.680491995,0.5189466746,,,-0.12447595495,-0.880108162,0.2781831545,0.363551405,0.5235988,,,,,0
2017-06-11 02:33:45.488,0.94517564050000014,-3.5561396945000006,2.6985943407499997,1.4627450075,1.60400731,0.90959405525,110.0,,-0.158883307,-0.8217742045,0.3364558355,0.430072191,0.5235988,,,,1.0,0
2017-06-11 02:33:45.588,-0.96596403574999989,-0.8072976584999999,0.88648957875000023,0.939938699,1.24548798,1.03145177175,,,-0.1929079625,-0.7593995445,0.3993653935,0.4752132135,0.5235988,,,,,0
2017-06-11 02:33:45.688,0.93040551299999996,1.0814776264999999,1.2085003479999998,0.43717584125,0.85750241275,1.17492337075,,,-0.2404688735,-0.7037436095,0.4386710245,0.5040012595,0.5235988,,,,,0
2017-06-11 02:33:45.788,0.67892513324999992,2.0896909950000002,0.55754822749999999,0.630662879,-0.284308033242,0.8227125495,,,-0.255719251,-0.66978794,0.474467096,0.5105144835,0.5235988,,,,,0
2017-06-11 02:33:45.888,0.033064675000000002,0.7082605461849999,-0.36730981514999994,0.5270651975,-0.2987084325,0.55251211325,,,-0.252860319,-0.6553963875,0.5179130205,0.4879876225,0.5235988,,,,,0
2017-06-11 02:33:45.988,1.8049373230000001,-0.35109327959999997,0.73829589369999993,0.1818815465,-0.1329308404,0.64426473525,,,-0.259173159,-0.643075771,0.543942854,0.4725602785,0.5235988,,,,,0
2017-06-11 02:33:46.088,1.6445983266150006,-3.6137788299999998,-1.62580569625,-0.1496203981,-0.6221717095,0.03021155491,111.0,,-0.2603369765,-0.642428989,0.5636219485,0.4491574115,0.5235988,,,,1.0,0
2017-06-11 02:33:46.188,4.1174913670000004,-1.4112581355,-3.3054039930000001,-1.7339303,-0.0728803866525,-1.591683117,,,-0.247511843,-0.682152749,0.526287184,0.441920547,0.5235988,,,,,0
2017-06-11 02:33:46.288,-3.1822755650000003,-1.2234665269999998,2.8999136674999999,-0.89950578425,-0.41502957085,-1.91937867,,,-0.2125153275,-0.7397105565,0.4312200805,0.4701362675,0.5235988,,,,,0
2017-06-11 02:33:46.388,-2.4493828,0.41274248990000001,1.4402890165,-1.301146458,-1.3269926525,-1.527187465,,,-0.1625064375,-0.801683221,0.3636370925,0.444211413,0.5235988,,,,,0
2017-06-11 02:33:46.488,-3.1890558549999999,1.7473133725000001,2.7291501,-0.610166942938,-1.266409835,-0.97142793,,,-0.10966561975,-0.8568978955,0.3009498495,0.403080913,0.5235988,,,,,0
2017-06-11 02:33:46.588,-3.6223369000000005,3.6629597869999997,0.85880461550000009,0.72875062375,0.1325581871,0.5528315243,,,-0.08411001795,-0.8773554175,0.2984489375,0.365867362,0.5235988,,,,,0
2017-06-11 02:33:46.688,2.1254140285000007,-3.5942274875000009,0.79880136749999986,1.2574129,1.53184563575,0.688823452875,112.0,,-0.1181137501,-0.830395267,0.351383651,0.414722076,0.5235988,,,,1.0,0
2017-06-11 02:33:46.788,-1.4478621815000001,-1.4018524099999998,1.327950441,0.945502575897,1.48591845641,1.21536925513,,,-0.15457401,-0.773276536,0.4124943755,0.4548494855,0.5235988,,,,,0
2017-06-11 02:33:46.888,0.033105747500000025,1.4078639589999999,1.1280844110000001,0.46650899375,1.22427335525,1.17968801375,,,-0.214452617,-0.711799351,0.4541525665,0.4903120585,0.5235988,,,,,0
2017-06-11 02:33:46.988,0.67521658530000006,2.0319619549999999,0.48028705349999995,0.5138892355,0.270227054508,0.9493348985,,,-0.2504958925,-0.6670824605,0.487407095,0.5044100905,0.5235988,,,,,0
2017-06-11 02:33:47.088,1.0813719049999999,0.8573294505000002,-0.36278923670000002,0.433472677805,-0.116522399046,0.616994807317,,,-0.262752162,-0.6448124645,0.5230543215,0.4914260665,0.5235988,,,,,0
2017-06-11 02:33:47.188,1.6092038192500002,-0.58406242134999997,0.61722990235000008,0.0858331675615,0.0807006496744,0.659692325128,,,-0.273356908,-0.63243623,0.542698081,0.4802963825,0.5235988,,,,,0
2017-06-11 02:33:47.288,1.5425345552500001,-2.2774050985000001,-1.4672050589999999,0.107829964225,-0.7605858795,0.171021359835,113.0,,-0.2778388495,-0.6277023715,0.563559592,0.459398065,0.5235988,,,,1.0,0
2017-06-11 02:33:47.388,3.7534044190000002,-2.1265171329999997,-4.02389127,-1.40612827725,0.00103810585,-1.27817502425,,,-0.263490632,-0.6583033305,0.5420929765,0.450120933,0.5235988,,,,,0
2017-06-11 02:33:47.488,-2.6537671254999999,-0.90973774411000008,2.5358715304999997,-1.1842663435,-0.078762986725,-1.935402775,,,-0.2374706345,-0.716598987,0.4473889785,0.478522883,0.5235988,,,,,0
2017-06-11 02:33:47.588,-1.8302320429999999,0.44344946749999997,1.1358266464999998,-1.3256883375,-1.25278134,-1.5920291625,,,-0.192485239,-0.776022364,0.373046984,0.469396337,0.5235988,,,,,0
2017-06-11 02:33:47.688,-3.2935463399999998,1.1729925880000001,2.4839957349999997,-0.76702746275,-1.3555272475,-1.23832772675,,,-0.1349362762,-0.838084071,0.3048643965,0.4308119535,0.5235988,,,,,0
2017-06-11 02:33:47.788,-3.9836833899999995,3.5566545749999996,1.8326989734999999,0.444176402783,-0.389343096375,0.25745036065,,,-0.10002364715,-0.8686908475,0.2877430925,0.3903967795,0.5235988,,,,,0
2017-06-11 02:33:47.888,1.7521727958000004,-3.0785913870000003,-0.13693966950000006,1.01635930625,1.650163129,0.7246248105,114.0,,-0.12787307045,-0.8342546425,0.329111622,0.422181954,0.5235988,,,,1.0,0
2017-06-11 02:33:47.988,-1.5418642784999999,-0.68974129300000009,1.090370514825,0.9722797105,1.33905063075,1.0181427185,,,-0.1596188145,-0.7794904005,0.380263445,0.470575921,0.5235988,,,,,0
2017-06-11 02:33:48.088,-0.5728241624999999,0.46622319174999999,1.1047767289999997,0.699337604,1.156157607,1.12245908275,,,-0.2062935695,-0.720186807,0.426825639,0.5059105045,0.5235988,,,,,0
2017-06-11 02:33:48.188,0.68809552750000003,1.7440098025000002,0.029611124949999991,0.4543711395,0.3708967455,1.01068965275,,,-0.2454293225,-0.67358178,0.4650646225,0.519148561,0.5235988,,,,,0
2017-06-11 02:33:48.288,1.0506484899999999,1.353394207,-0.1871125219,0.36661123075,0.066225857675,0.61423950125,,,-0.263666008,-0.6494815025,0.495597276,0.5128090165,0.5235988,,,,,0
2017-06-11 02:33:48.388,0.39126012749999994,-0.067376858280000007,0.15498137120000002,0.1590165881,0.0442126797775,0.5098166575,,,-0.267267461,-0.637970252,0.512074627,0.5092043605,0.5235988,,,,,0
2017-06-11 02:33:48.488,2.3653659710000001,-2.0073885791999997,0.20155620079999997,0.274752131625,-0.024062771725,0.63915405875,115.0,,-0.2856035945,-0.621869886,0.5332676115,0.4972061585,0.5235988,,,,1.0,0
2017-06-11 02:33:48.588,2.3083211570000004,-2.3764461700000004,-4.4062207249999998,-0.7993418398,-0.6779898875,-0.556345119375,,,-0.2784822465,-0.6322222575,0.5420331975,0.478159165,0.5235988,,,,,0
2017-06-11 02:33:48.688,1.512071087,-1.4996130710000002,2.3515422349999997,-1.568764933,0.2879280958,-2.229719225,,,-0.25936878,-0.693705136,0.460707967,0.487290045,0.5235988,,,,,0
2017-06-11 02:33:48.788,-2.7843356399999997,-0.37376260490000002,-0.59191399459999994,-0.92444696575,-1.363565924,-1.7594837125,,,-0.21245655,-0.750011463,0.380359704,0.4961990665,0.5235988,,,,,0
2017-06-11 02:33:48.888,-2.7076512350000002,0.45766034199999989,3.4600322999999995,-1.11969080275,-1.738189205,-1.5295830825,,,-0.153050987,-0.829385327,0.3092729765,0.4377612715,0.5235988,,,,,0
2017-06-11 02:33:48.988,-3.6528612449999995,1.8428097864999997,2.9599976200000002,-0.247202389925,-1.315520226,-0.704581381,,,-0.09398535495,-0.8820075155,0.260704246,0.3804279405,0.5235988,,,,,0
2017-06-11 02:33:49.088,0.10583059600000015,2.2664168865000001,-0.58099811349999997,0.96509281775,0.73846622915,0.40526072778,,,-0.07489571525,-0.887303544,0.277632355,0.3600348135,0.5235988,,,,,0
2017-06-11 02:33:49.188,-0.049101669999999945,-1.837601944,1.75431019,1.34464045,0.9390603045,0.7401431685,116.0,,-0.0940291286,-0.844623806,0.3352347885,0.4059606675,0.5235988,,,,1.0,0
2017-06-11 02:33:49.288,-0.46093458450000002,-1.82041647695,1.392429701,1.04398891125,1.191612945,1.174923385,,,-0.12824570215,-0.7956239535,0.4009737055,0.4346811975,0.5235988,,,,,0
2017-06-11 02:33:49.388,-0.25333129100000013,1.1497435060000001,1.4950559349999999,0.735615360513,1.26314535667,1.46407795897,,,-0.1847372675,-0.7344549515,0.454355878,0.4679517735,0.5235988,,,,,0
2017-06-11 02:33:49.488,0.50844910519999997,2.1431704649999999,0.35186885350000002,0.56523556975,0.34121755085,1.2364644525,,,-0.2310935435,-0.6821891015,0.5033460905,0.476907746,0.5235988,,,,,0
2017-06-11 02:33:49.588,1.6243013399999999,1.3453740930000002,0.98806507600000015,0.59454210775,-0.59531403295,0.782838616,,,-0.2465977465,-0.6557549365,0.5454435405,0.459805735,0.5235988,,,,,0
2017-06-11 02:33:49.688,0.016543105249999988,0.70346706300000006,0.0024594991000000009,0.530924835,-0.721350786,0.51146698475,,,-0.218149349,-0.647139114,0.585523778,0.436534377,0.5235988,,,,,0
2017-06-11 02:33:49.788,0.31717695350000008,0.92462231300000008,0.27860119435000003,0.28665042875,-0.37858938025,0.70737627075,,,-0.2119382585,-0.6403617485,0.617282682,0.4047578375,0.5235988,,,,,0
2017-06-11 02:33:49.888,2.1436202050000004,0.38121387749999996,-0.27873764000000001,0.26631419,-0.41194187075,0.567205303,,,-0.2072791775,-0.629779807,0.6414598265,0.385813519,0.5235988,,,,,0
2017-06-11 02:33:49.988,4.7256432249999998,-1.1744612499999998,-0.66664241165000004,-0.396130718625,-0.93490786775,-0.1071112725,117.0,,-0.193268909,-0.6370215095,0.6547973265,0.357606994,0.5235988,,,,1.0,0
2017-06-11 02:33:50.088,0.62475801080000015,-1.9402005093799999,-0.43621695615000011,-1.8019395925,-1.3386779835,-1.8095789775,,,-0.13998768645,-0.7024407595,0.610920162,0.3344230815,0.5235988,,,,,0
2017-06-11 02:33:50.188,-0.67503425049999999,-0.96916426164999991,3.0221012649999999,-0.96807404575,-0.82510818375,-1.762651245,,,-0.07038116095,-0.7694787025,0.5302527235,0.347993857,0.5235988,,,,,0
2017-06-11 02:33:50.288,-2.257976282,0.56889542500000001,3.9833877450000004,0.291015801735,-1.5790927625,-1.9218275625,,,0.023552137875,-0.7953609745,0.4910183605,0.3527759125,0.5235988,,,,,0
2017-06-11 02:33:50.388,-4.3046784200000001,1.0415655734999998,3.1256872000000002,1.33308689049,-1.33677447854,-0.926699760244,,,0.1361706907,-0.79671906,0.492743714,0.3207724505,0.5235988,,,,,0
2017-06-11 02:33:50.488,-2.3813778539999997,0.21649088400000002,-0.44961520299999991,1.53470468974,-0.524090110256,0.818909568205,,,0.185612591,-0.768953283,0.543881661,0.2787952635,0.5235988,,,,,0
2017-06-11 02:33:50.588,4.9639611830000003,0.69849770599999983,-0.97402862300000004,0.5507287,-1.09725173775,-0.404781597675,118.0,,0.2089275755,-0.7557446295,0.5806407215,0.2183123375,0.5235988,,,,1.0,0
2017-06-11 02:33:50.688,-0.0050409907999999113,-3.7959470469999999,0.75242278999999979,0.930302948412,-0.94842987515,-0.21704406955,,,0.2544910165,-0.7355182745,0.596328062,0.195471581,0.5235988,,,,,0
2017-06-11 02:33:50.788,-7.2226240500000021,0.76946575000000006,5.3814581799999992,0.530388565976,-0.304043740878,1.10575525361,,,0.277580926,-0.723351476,0.6139146465,0.149013235,0.5235988,,,,,0
2017-06-11 02:33:50.888,1.093438946,-0.3394996489999999,2.5816483249999997,1.16869475,-0.381038248392,0.906719301,,,0.23570092,-0.711058375,0.6557450235,0.0915768611,0.5235988,,,,,0
2017-06-11 02:33:50.988,0.20455614439999997,1.0863495840000001,0.51230943920000005,1.09298055359,-0.454145909487,0.989947987692,,,0.2037409725,-0.6154974735,0.623335036,0.027820633136,0.5235988,,,,,0
2017-06-11 02:33:51.088,1.4762136545,0.97479932250000001,-0.083798239164999982,0.575110884,-0.160241023353,0.68608178425,,,-0.2120152125,0.661023451,-0.719435492,0.019701104545,0.5235988,,,,,0
2017-06-11 02:33:51.188,4.0616198500000014,0.4940859755,-1.8102656770000003,-0.0971028665,-0.51378276377,0.243316145325,,,-0.207428367,0.6525971145,-0.727406526,0.0434342139,0.5235988,,,,,0
2017-06-11 02:33:51.288,3.6193910294999987,-1.901372313,0.55022382849999996,-1.745296245,-1.916397465,-1.5156085825,119.0,,-0.270424881,0.675365751,-0.6823347015,0.05638961435,0.5235988,,,,1.0,0
2017-06-11 02:33:51.388,0.51831476649999986,-2.5532734619999999,4.2314304800000011,-1.20934059425,-0.9392998735,-1.724267935,,,-0.3854518235,0.6969478465,-0.6034859325,0.02056768529,0.5235988,,,,,0
2017-06-11 02:33:51.488,-1.926140883,-0.052881864450000038,5.1458931299999993,0.59808232055,-1.88402985,-2.0397723975,,,-0.109424204,0.1221575145,-0.115001518,0.0053816702575,0.5235988,,,,,0
2017-06-11 02:33:51.588,-5.1501229599999991,1.7998590650000001,4.2235662500000002,1.7055554,-1.45973716125,-0.676366183225,,,-0.568883678,0.5841647165,-0.5755294555,0.0521718402,0.5235988,,,,,0
2017-06-11 02:33:51.688,0.013208619999999716,-2.5022350785000005,-1.6776578494999999,1.91724923275,-0.9248462444,0.906852398675,,,-0.5810743675,0.527467406,-0.6013925665,0.14540402725,0.5235988,,,,,0
2017-06-11 02:33:51.788,-0.28832682450000013,-0.55276558799999997,-0.21072917675000005,-0.090714520625,0.221223116225,-0.5922263334,120.0,,-0.590710385,0.4993709125,-0.602886769,0.19502671,0.5235988,,,,1.0,0
2017-06-11 02:33:51.888,-2.3949200344999997,0.78366028250000019,4.2119234107000008,0.61195034765,-0.814141520175,0.227611460692,,,-0.5891261925,0.4856294405,-0.617010608,0.1901647305,0.5235988,,,,,0
2017-06-11 02:33:51.988,0.96385585880000035,-0.71292259599999985,1.5251826664999999,1.224140255,-1.19635095,0.53057878775,,,-0.588702068,0.4558835485,-0.610951174,0.2676726645,0.5235988,,,,,0
2017-06-11 02:33:52.088,-0.33267196749999994,0.43181947594999998,-0.19338525700000003,0.927587917,-0.4763577005,0.49043868025,,,-0.5891722665,0.4211253385,-0.6035048625,0.333235374,0.5235988,,,,,0
2017-06-11 02:33:52.188,0.2332341785,0.72665003849999987,0.41326413775000015,0.63808933575,-0.50353478625,0.3028342365,,,-0.584770343,0.3990351185,-0.5985362145,0.3746981215,0.5235988,,,,,0
2017-06-11 02:33:52.288,0.032078409800000006,0.63742251049999987,0.50132153074999997,0.42522431,-0.087307399925,0.540560578,,,-0.577062251,0.3881002285,-0.59234305,0.4067054795,0.5235988,,,,,0
2017-06-11 02:33:52.388,2.356994507,-0.21805350974999999,0.12552297479999999,0.42599623625,0.082116868675,0.6023412155,,,-0.555766388,0.3918881515,-0.5901685775,0.434897117,0.5235988,,,,,0
2017-06-11 02:33:52.488,2.6480784350000004,-2.4592002749999997,-2.4797406244999998,-0.240627714415,-0.82367079925,-0.013761561255,121.0,,-0.5526436595,0.387057936,-0.5766527425,0.460503129,0.5235988,,,,1.0,0
2017-06-11 02:33:52.588,2.3467839129999999,-2.4341599984999998,-0.156487552,-1.6598255075,-0.82255284,-1.67010008275,,,-0.615902536,0.3738241115,-0.546755969,0.4249392015,0.5235988,,,,,0
2017-06-11 02:33:52.688,-0.13773358299999999,-1.8394036150000002,2.2160652450000002,-0.8457105955,-0.477768465225,-1.9175686575,,,-0.6879693395,0.3357019755,-0.544802346,0.3410222865,0.5235988,,,,,0
2017-06-11 02:33:52.788,-2.37385154,-0.46171461730000002,2.1410630749999999,-0.735272053,-1.7492357275,-2.209702415,,,-0.760323861,0.2654244955,-0.524442402,0.273374874,0.5235988,,,,,0
2017-06-11 02:33:52.888,-4.2618477600000002,1.9066641595000005,3.2992594299999993,-0.363869563735,-2.178718955,-1.4871538075,,,-0.840617661,0.1795731225,-0.4573531845,0.224412966,0.5235988,,,,,0
2017-06-11 02:33:52.988,-3.1189004749999998,1.9520615750000001,1.5830606089999999,0.58645020175,-0.4845294657,-0.5003140024,,,-0.88013628,0.1188318131,-0.4048368465,0.2171492145,0.5235988,,,,,0
2017-06-11 02:33:53.088,0.33617593088850006,0.15210929600000006,-0.75582259586500022,1.23321704375,1.012047166,0.4672010678,,,-0.863679308,0.1010285663,-0.421111006,0.2565922495,0.5235988,,,,,0
2017-06-11 02:33:53.188,-1.1678246600000002,-2.0485203299999997,1.438881096,1.21457754103,1.13920051333,0.746481010256,122.0,,-0.81738404,0.115056116,-0.4673743095,0.3155603565,0.5235988,,,,1.0,0
2017-06-11 02:33:53.288,-0.86804827299999998,-2.2296717804999999,0.96145178374999996,0.94039121025,1.3229733125,1.12922007925,,,-0.759891255,0.150980428,-0.506054447,0.3780051845,0.5235988,,,,,0
2017-06-11 02:33:53.388,0.12103803249999998,0.71629712300000015,1.1079098129999998,0.520468450976,0.783429416878,1.44628526829,,,-0.7036836335,0.205068278,-0.52861274,0.427378784,0.5235988,,,,,0
2017-06-11 02:33:53.488,0.30502150665,2.1315042750000002,0.11734958682500003,0.74770270725,-0.066385566,1.00352936625,,,-0.6684597885,0.2363412685,-0.51857136,0.4775767455,0.5235988,,,,,0
2017-06-11 02:33:53.588,0.77860045199999994,0.55480753900000002,-0.46771268355000001,0.439075965897,-0.033006456159,0.503505441282,,,-0.657014077,0.2315641685,-0.5069651205,0.5075904975,0.5235988,,,,,0
2017-06-11 02:33:53.688,1.0993641708500002,-0.31931472875,0.18844720750000005,0.0980065824537,-0.120989047849,0.450612138537,,,-0.6483591575,0.236609964,-0.4974599045,0.525485677,0.5235988,,,,,0
2017-06-11 02:33:53.788,1.5991653180000001,-3.2010067399999995,-1.6922683575000002,-0.352068868308,-0.114362322079,0.0863518812949,123.0,,-0.647787521,0.2473525235,-0.4843947735,0.5334031295,0.5235988,,,,1.0,0
2017-06-11 02:33:53.888,4.0849982750000011,-2.3234242349999996,-3.2322877685,-1.7360597675,0.06385684515,-1.61414882525,,,-0.6836074375,0.2458121275,-0.4803093445,0.49025975,0.5235988,,,,,0
2017-06-11 02:33:53.988,-4.3533668099999998,-2.0176704079999999,2.4753505365000001,-0.93932648725,-0.51793517285,-2.0133140125,,,-0.737555116,0.213138792,-0.513240633,0.38240431,0.5235988,,,,,0
2017-06-11 02:33:54.088,-2.1589518224999997,0.16465494684999998,2.4406509959999996,-1.42204591625,-1.659293145,-1.4634903225,,,-0.8068453295,0.163368156,-0.472957984,0.3117064385,0.5235988,,,,,0
2017-06-11 02:33:54.188,-3.7867765600000007,1.9283646674999999,2.9038276949999999,-0.487324358375,-1.56035361075,-0.83410509325,,,-0.8678749295,0.11138428355,-0.4105322085,0.2551229455,0.5235988,,,,,0
2017-06-11 02:33:54.288,-2.6905585219999995,3.2600613649999999,1.5470947525000001,0.7184227985,0.34875048275,0.136231485675,,,-0.885737954,0.0840704193,-0.377113121,0.2569594305,0.5235988,,,,,0
2017-06-11 02:33:54.388,1.0411066405,-4.2880673700000003,0.081284623000000084,1.16504808025,1.76209226,0.99636910175,,,-0.840133962,0.11171030615,-0.4274237615,0.312526591,0.5235988,,,,,0
2017-06-11 02:33:54.488,-1.4562688915199997,-0.37191410359999999,1.2514418321000003,0.89934608975,1.40461105,1.02024554375,124.0,,-0.782392301,0.1523645065,-0.477678508,0.3682299345,0.5235988,,,,1.0,0
2017-06-11 02:33:54.588,0.056141678499999993,0.18291009100000002,1.2882617430000001,0.51096124375,1.110347849,1.104651565,,,-0.7215131405,0.205891174,-0.5160896615,0.412439983,0.5235988,,,,,0
2017-06-11 02:33:54.688,0.53825383650000014,1.4237100680000001,0.49096647019999995,0.45873651075,0.2522598283,0.959715964,,,-0.680843539,0.24067813,-0.527762119,0.446990372,0.5235988,,,,,0
2017-06-11 02:33:54.788,0.18761532300000003,1.0822067885000002,-0.11519371255000002,0.374782989,0.069845921145,0.60694615075,,,-0.6602555015,0.253378399,-0.5193602395,0.479605967,0.5235988,,,,,0
2017-06-11 02:33:54.888,1.07402120477,0.097388568200000025,0.57315887720000003,0.1441104461,0.31156497835,0.67090946525,,,-0.640020888,0.2711928215,-0.5174147265,0.498987523,0.5235988,,,,,0
2017-06-11 02:33:54.988,2.8281536349999996,-2.3177029199999999,-1.3004587519999999,0.0079588134325,-0.1541720928,0.3552985292,125.0,,-0.6239076055,0.290527127,-0.507601464,0.51828895,0.5235988,,,,1.0,0
2017-06-11 02:33:55.088,4.4734518050000007,-1.77512665,-4.5630510539999998,-1.382730973,-0.35410071775,-1.105263781,,,-0.651057965,0.286960872,-0.493380273,0.4997222005,0.5235988,,,,,0
2017-06-11 02:33:55.188,-1.7430896534999998,-1.3087498467500001,4.3121932740000002,-0.9346416995,-0.21180030219,-2.153831,,,-0.7100290755,0.259883732,-0.5125234185,0.4057228135,0.5235988,,,,,0
2017-06-11 02:33:55.288,-2.4877820599999998,-0.186142897,0.27291007999999989,-1.05242684975,-1.7739905675,-1.79382106,,,-0.774120827,0.195569657,-0.493164808,0.3429973345,0.5235988,,,,,0
2017-06-11 02:33:55.388,-3.046175845,1.1752807607,3.1620082699999994,-0.66169960025,-1.831059805,-1.283312333,,,-0.8467442715,0.1259239895,-0.4324079595,0.2810641675,0.5235988,,,,,0
2017-06-11 02:33:55.488,-3.2443074564999996,2.2502197750000001,2.2085878899999996,0.379254827855,-0.565208958925,-0.184596591815,,,-0.8826013805,0.07861347295,-0.3819177095,0.262329193,0.5235988,,,,,0
2017-06-11 02:33:55.588,0.65056898549999997,-0.55984859600000014,0.5898810364999999,1.365721995,1.6113006735,0.83748559525,,,-0.8584537405,0.08312705675,-0.402463458,0.3051538145,0.5235988,,,,,0
2017-06-11 02:33:55.688,-0.98619517000000001,-0.85276455000000007,0.6097592515000001,1.1591122125,1.09964736575,0.724837753,126.0,,-0.799604076,0.11182457325,-0.458982818,0.3698606215,0.5235988,,,,1.0,0
2017-06-11 02:33:55.788,-0.37505485412999995,-1.6440297770000001,0.82312782549999997,0.68222216225,1.3031428075,1.18077935775,,,-0.74236049,0.158784929,-0.4876345805,0.43027237,0.5235988,,,,,0
2017-06-11 02:33:55.888,0.48311218049999993,1.6640080080000001,0.96144288200000028,0.48375753175,0.662231961425,1.17904918,,,-0.691807726,0.2084129545,-0.5080550795,0.4684495885,0.5235988,,,,,0
2017-06-11 02:33:55.988,0.29083488460000001,1.727248106,-0.36998070904999997,0.44087576075,-0.0799874206675,0.72883046975,,,-0.662641132,0.227148491,-0.503956614,0.5051524905,0.5235988,,,,,0
2017-06-11 02:33:56.088,0.81611504405000002,0.22412803800000006,0.020372773800000004,0.23565012925,0.0876800548425,0.55115459,,,-0.6467111165,0.237146514,-0.4932610975,0.531178244,0.5235988,,,,,0
2017-06-11 02:33:56.188,2.6668592850000001,-1.5139680731499998,0.33796726449999992,0.209484527175,-0.168865289375,0.76649509025,127.0,,-0.6337394915,0.2544987485,-0.477579251,0.552609182,0.5235988,,,,1.0,0
2017-06-11 02:33:56.288,2.1530455870000003,-3.2969708849999995,-4.5407367950000008,-0.56188168975,-0.307119755737,-0.415907976538,,,-0.6354408425,0.254950154,-0.4571367045,0.567553196,0.5235988,,,,,0
2017-06-11 02:33:56.388,1.6514777859999998,-1.0662927297999998,1.2263560199999999,-1.74896954,0.142167327875,-2.098092685,,,-0.686675417,0.238508853,-0.473998997,0.4953280735,0.5235988,,,,,0
2017-06-11 02:33:56.488,-2.8802123450000003,0.013150991000000006,-0.088574040000000021,-0.97611271325,-1.10039267333,-1.7007109225,,,-0.7319764275,0.2028409555,-0.4977766325,0.4174690375,0.5235988,,,,,0
2017-06-11 02:33:56.588,-3.3293454150000001,0.71594094650000006,2.2955918620000002,-0.9959166005,-1.5684987525,-1.616517825,,,-0.8021100505,0.1356726135,-0.4663208525,0.3456635185,0.5235988,,,,,0
2017-06-11 02:33:56.688,-3.9302717849999995,1.8643293624999999,1.3844610720000001,-0.34100460805,-1.04297741675,-0.6776438499,,,-0.8523127525,0.07818296095,-0.424049071,0.295335037,0.5235988,,,,,0
2017-06-11 02:33:56.788,-1.6309526940000001,2.8083311180000003,-0.0034303175000000461,0.66830089,0.702105894175,0.566353527875,,,-0.857960164,0.06689112355,-0.4103456045,0.301304229,0.5235988,,,,,0
2017-06-11 02:33:56.888,1.7154034065000001,-2.5904263224999999,0.62969759869999986,1.26344566667,1.43967119282,0.588874499487,128.0,,-0.8087227815,0.0974257764,-0.4597124365,0.352554819,0.5235988,,,,1.0,0
2017-06-11 02:33:56.988,-1.630888144,-1.4463983714999997,0.16757037941500003,0.97805583725,1.3192201425,1.0685840305,,,-0.7522217115,0.1231032875,-0.499181406,0.4110696085,0.5235988,,,,,0
2017-06-11 02:33:57.088,-0.86511033924999992,0.67333827749999997,0.23393126689999999,0.427162236098,1.18127278488,1.23211985439,,,-0.694402887,0.177224693,-0.527071407,0.4559849095,0.5235988,,,,,0
2017-06-11 02:33:57.188,0.84108063849999992,1.9699242865,0.070540987390000004,0.42823215275,0.302461586275,0.99945680725,,,-0.653028725,0.222430783,-0.5312837445,0.491496219,0.5235988,,,,,0
2017-06-11 02:33:57.288,0.96279188949999983,1.0230936485000002,-0.91994973970000005,0.5217415705,-0.0776982633675,0.62967801875,,,-0.6326343205,0.2344914665,-0.5186145305,0.525122522,0.5235988,,,,,0
2017-06-11 02:33:57.388,0.16316983268500002,0.3824210569,-0.59203724479999997,0.017248535685,0.0553390514425,0.3486173885,,,-0.6326964275,0.23358725,-0.5074313365,0.5363073515,0.5235988,,,,,0
2017-06-11 02:33:57.488,1.061836368,-0.83824429300000003,0.73709215184999999,0.302272527436,0.133090550526,0.72548682359,129.0,,-0.61906784,0.2515345415,-0.5013237095,0.5495644385,0.5235988,,,,1.0,0
2017-06-11 02:33:57.588,1.3956235454999999,-3.0247510015000003,-1.9504854190000001,0.0050308242175,-0.39200490925,0.430920586075,,,-0.606354651,0.2591982695,-0.4820309245,0.576811783,0.5235988,,,,,0
2017-06-11 02:33:57.688,4.5672319400000001,-0.18033850115000005,-3.6167940700000001,-1.62788377025,-0.184703067965,-0.939299869888,,,-0.6339878835,0.2667076325,-0.4670303415,0.555057348,0.5235988,,,,,0
2017-06-11 02:33:57.788,-1.9059504820000002,0.27089004150000001,3.5198879612500007,-0.72587586385,-0.5623075741,-1.9696602925,,,-0.6958832675,0.2379379975,-0.486837138,0.470378369,0.5235988,,,,,0
2017-06-11 02:33:57.888,-2.0242256434999999,1.0818331000000001,0.76715721749999999,-0.763806671,-1.32696602525,-1.2209194775,,,-0.758871571,0.1726337295,-0.4586973525,0.4278402735,0.5235988,,,,,0
2017-06-11 02:33:57.988,-2.7542827250000004,1.7631856400000001,2.5676810150000002,-0.031223042945,-0.690127739,-0.9867333425,,,-0.796185406,0.12322806795,-0.4479732405,0.3871523845,0.5235988,,,,,0
2017-06-11 02:33:58.088,-3.7730108000000002,3.1719308850000001,2.1980860299999998,1.0686638875,-0.490305586125,0.105035062132,,,-0.8053531995,0.07903608225,-0.43191335,0.3978935325,0.5235988,,,,,0
2017-06-11 02:33:58.188,3.1989829475000002,-0.74042340300000009,-1.87449486591,1.7586851535,-0.165671107875,1.04537304215,,,-0.7711857335,0.0711022542,-0.4180693075,0.4737438615,0.5235988,,,,,0
2017-06-11 02:33:58.288,-4.5439166350000004,-0.32861985699999985,-1.4115923865000002,0.375661383108,-0.940258125192,-0.833519505,130.0,,-0.7598320285,0.02874187778,-0.3962692595,0.514153256,0.5235988,,,,1.0,0
2017-06-11 02:33:58.388,3.0484353500000001,-2.0478280340000006,4.3477557079999993,0.613121539407,0.1026660451,1.11907859325,,,-0.7557706335,0.03882149655,-0.3713833965,0.53745576,0.5235988,,,,,0
2017-06-11 02:33:58.488,-1.492999422,1.0393992252499999,2.0056877530000001,0.890668584,-0.9777364245,0.841558168,,,-0.738182221,0.03570983705,-0.3301060095,0.586778727,0.5235988,,,,,0
2017-06-11 02:33:58.588,0.59561614695000009,0.54262349089999995,-0.040416630500000009,0.8625066265,-0.83817766125,0.63886126625,,,-0.7148183315,0.0198936990675,-0.2841093965,0.638420379,0.5235988,,,,,0
2017-06-11 02:33:58.688,-0.12068439624999998,0.32996748930000008,0.4591626828,0.62440762775,-0.701546909,0.259180538,,,-0.703616515,-0.020247508375,-0.2513088675,0.6641877645,0.5235988,,,,,0
2017-06-11 02:33:58.788,1.9317475252500003,-0.39706614125,0.17793603086499996,0.24235789075,-0.2597927555,0.5752705975,,,-0.69273616,-0.02386404055,-0.222861776,0.685406479,0.5235988,,,,,0
2017-06-11 02:33:58.888,3.5179342400000002,-2.882860935000001,-2.4008465674999999,-0.241053603482,-0.96831361225,-0.1158420171,131.0,,-0.6945129455,-0.03189611795,-0.1890262625,0.693296411,0.5235988,,,,1.0,0
2017-06-11 02:33:58.988,2.0449016969999994,-2.8603401635000001,0.11220376724999996,-1.403093825,-0.61463878175,-1.9926317075,,,-0.7312808955,-0.09130802495,-0.1945473715,0.6462162895,0.5235988,,,,,0
2017-06-11 02:33:59.088,-0.22020744000000003,-2.0474743750000002,2.9019876445000001,-0.595234173,-0.9739034105,-2.1039220375,,,-0.7553904435,-0.1772481515,-0.2418231285,0.5816913025,0.5235988,,,,,0
2017-06-11 02:33:59.188,-2.92314374,-0.32357850849999997,3.1680907219999996,-0.5888192135,-2.0203145475,-2.09002739,,,-0.7683028435,-0.287754701,-0.2498097815,0.512642872,0.5235988,,,,,0
2017-06-11 02:33:59.288,-4.8126482349999993,1.8855597969999998,4.2976887299999991,0.0502549929575,-2.2854309475,-1.44270158,,,-0.7725711825,-0.409536244,-0.2065047925,0.4371660415,0.5235988,,,,,0
2017-06-11 02:33:59.388,-3.0332822935000001,2.4637742899999999,2.27511354,1.062887759,-0.28651733965,-0.293650985785,,,-0.755903965,-0.479574014,-0.1588884825,0.4160277365,0.5235988,,,,,0
2017-06-11 02:33:59.488,1.66218288,-3.9885701684999995,0.45507447649999994,1.42758249,1.30820025725,0.5953672705,132.0,,-0.7258703695,-0.4653225655,-0.147257604,0.4836296695,0.5235988,,,,1.0,0
2017-06-11 02:33:59.588,-2.3063960060499999,-1.6096339035,1.5582659335,1.1290337505,1.241894553,1.108724133,,,-0.701984088,-0.408731534,-0.134813265,0.5665370045,0.5235988,,,,,0
2017-06-11 02:33:59.688,-0.6210615276,0.290111275,0.99572024650000002,0.694067222,0.96384176825,1.3473555,,,-0.6889328415,-0.333807548,-0.1241876013,0.6307420225,0.5235988,,,,,0
2017-06-11 02:33:59.788,0.67475745269999998,1.3239322874999997,0.76064939075000004,0.72265506775,-0.136870324325,1.06243525375,,,-0.6771901005,-0.2802016535,-0.09424031195,0.67356859,0.5235988,,,,,0
2017-06-11 02:33:59.888,0.61298900350099994,1.4432834615000001,0.013275112949999996,0.57452528825,-0.21600596315,0.68552280925,,,-0.66499158,-0.26575094,-0.0509209883,0.69600275,0.5235988,,,,,0
2017-06-11 02:33:59.988,0.82520256194500008,-0.061423478175000004,0.33325283830000002,0.292881113846,-0.147860188179,0.545166199487,,,-0.6549687955,-0.2570568385,-0.0238709792,0.7101403705,0.5235988,,,,,0
2017-06-11 02:34:00.088,2.1042423250000004,-2.9785158383000003,0.30764463650000001,0.497667769049,-0.383015130976,0.869464342439,133.0,,-0.648537707,-0.238395043,0.01547923982,0.722526958,0.5235988,,,,1.0,0
2017-06-11 02:34:00.188,3.2451791800000001,-2.7007748314999995,-4.5871266099999994,-1.01627944882,-0.26130998757,-0.73963742525,,,-0.6513664715,-0.2477324055,0.0387380021,0.715912533,0.5235988,,,,,0
2017-06-11 02:34:00.288,0.04585957850000013,-0.59284167649999997,2.7993427956999999,-1.45231071675,0.271850761888,-2.40090028,,,-0.6822525125,-0.303125228,-0.043086479575,0.6625449715,0.5235988,,,,,0
2017-06-11 02:34:00.388,-2.7901274169999999,-0.0097892032100000085,-0.13170455099999998,-1.14285879256,-1.70680782051,-1.88740147179,,,-0.686316755,-0.3842389315,-0.1018658572,0.607728302,0.5235988,,,,,0
2017-06-11 02:34:00.488,-2.3815333399999998,0.035661954950000005,3.5312080949999993,-1.03091291195,-1.89372922195,-1.59602188537,,,-0.69307124,-0.4892775465,-0.116391049,0.5149543775,0.5235988,,,,,0
2017-06-11 02:34:00.588,-3.7384958500000005,1.7846614935000003,2.6341100750000002,-0.113870910128,-1.18997968744,-0.715685905385,,,-0.6861066145,-0.568086737,-0.10487255415,0.441705727,0.5235988,,,,,0
2017-06-11 02:34:00.688,-0.78907631049999982,3.022764665,0.12791186400000004,0.8728078285,0.157366268882,0.023929680925,,,-0.671216775,-0.5939262655,-0.0812245308,0.435837275,0.5235988,,,,,0
2017-06-11 02:34:00.788,0.51655042999999989,-3.2132501185000009,-0.12749886070000005,1.40996129125,1.1762809115,0.57018653275,134.0,,-0.6518633505,-0.5658036375,-0.06800328455,0.499493104,0.5235988,,,,1.0,0
2017-06-11 02:34:00.888,-1.6997095099999999,-1.0023695545,0.85616720350000008,1.13174880675,1.26084664,1.01183422075,,,-0.6387127965,-0.5106571755,-0.03645356345,0.5736242115,0.5235988,,,,,0
2017-06-11 02:34:00.988,-0.54851714350000003,0.254567753615,1.5034544524999998,0.4474770505,1.7238952925,1.3324759625,,,-0.6425244285,-0.4216208075,-0.0275112516,0.6383476475,0.5235988,,,,,0
2017-06-11 02:34:01.088,0.77937299984999986,1.2760993157499998,1.5030233829999999,0.51732296975,0.5882602335,1.38006916,,,-0.647006948,-0.336289907,-0.0143487382085,0.6837798175,0.5235988,,,,,0
2017-06-11 02:34:01.188,1.3699530150000001,2.1624841250000002,0.90600115000000003,0.670802991,-0.3061082648,0.94723206325,,,-0.6447309745,-0.2911839485,0.02984572565,0.7059295795,0.5235988,,,,,0
2017-06-11 02:34:01.288,0.96672981349999998,1.1246084429999998,0.030748894550000006,0.593663706,-0.566566474,0.64495680875,,,-0.628509793,-0.28654301,0.07981624425,0.718527337,0.5235988,,,,,0
2017-06-11 02:34:01.388,1.0795790344999998,1.0718595145000001,0.65237928999999995,0.53595564925,-0.49600186475,0.77517260225,,,-0.6149196865,-0.2823533645,0.12814677985,0.7249141465,0.5235988,,,,,0
2017-06-11 02:34:01.488,2.6615364700000002,0.63493615949999993,-1.2820104029999999,0.3186720143,-0.40262553175,0.54843954425,,,-0.6007241215,-0.284015018,0.1678503735,0.7281547785,0.5235988,,,,,0
2017-06-11 02:34:01.588,5.851120925,-1.6225223210000004,-1.3588701857500001,-0.914411934332,-1.17758518775,-0.6106992986,135.0,,-0.6028318625,-0.3075232545,0.18628834,0.71191207,0.5235988,,,,1.0,0
2017-06-11 02:34:01.688,1.4701736320000001,-2.7890745785000002,1.6792363065,-1.9687818975,-1.62045731775,-2.2041126175,,,-0.6128585845,-0.4261703145,0.155886975,0.644909949,0.5235988,,,,,0
2017-06-11 02:34:01.788,2.0352340400500002,-2.6351670300000003,4.3219573399999991,-0.389476186575,-1.6901169175,-2.78896575,,,-0.5851842555,-0.5486925855,0.09835807285,0.587056269,0.5235988,,,,,0
2017-06-11 02:34:01.888,-2.0977522899999999,-1.591055345,4.2188306300000002,0.310447013535,-2.5857364575,-2.8286267025,,,-0.487693764,-0.6837970765,0.073220735,0.535027185,0.5235988,,,,,0
2017-06-11 02:34:01.988,-4.0798455050000006,0.12023220435,3.4449659050000001,0.835728805,-2.0598424375,-1.865636725,,,-0.375942896,-0.796687056,0.08803276025,0.463068096,0.5235988,,,,,0
2017-06-11 02:34:02.088,-1.0642638858500002,2.8004777550000002,2.0759961370000002,1.463330605,-0.5286356692,-0.4938990354,,,-0.2943095355,-0.8422289525,0.1303730065,0.431829087,0.5235988,,,,,0
2017-06-11 02:34:02.188,-0.99957554974999996,-3.3416907700000005,1.1213638115000002,1.7983461525,0.721084603,0.613307872775,,,-0.2604816445,-0.823948699,0.2001060365,0.4607342655,0.5235988,,,,,0
2017-06-11 02:34:02.288,0.0017098159999999433,-3.0195985035000001,1.8721462162999996,1.4424620025,1.31991221975,1.12211305325,,,-0.2741815765,-0.7593609215,0.2791384845,0.518636015,0.5235988,,,,,0
2017-06-11 02:34:02.388,-1.335919903,0.035881060999999992,0.69312288194999983,0.7173048335,0.46395366,1.4749627025,,,-0.3054947245,-0.701020601,0.3440687355,0.5442756965,0.5235988,,,,,0
2017-06-11 02:34:02.488,1.3406288265000001,2.105915472,1.7261483700000002,0.7400366965,-0.298522103625,1.0517347635,,,-0.331695634,-0.660318811,0.3980589075,0.543293965,0.5235988,,,,,0
2017-06-11 02:34:02.588,0.57858315004999994,0.98606129869999992,0.16089752129999998,0.77461362525,-0.248107403052,0.67373098775,,,-0.326464234,-0.6397918015,0.4531288525,0.5277582865,0.5235988,,,,,0
2017-06-11 02:34:02.688,2.3517994450000002,-0.40962714094999997,0.38632476900000001,0.433449305,-0.17285800697,0.7799638645,,,-0.3294325745,-0.616562188,0.49222925,0.518517826,0.5235988,,,,,0
2017-06-11 02:34:02.788,3.5667223049999999,-3.7286344150000006,-3.8043441599999994,-0.504572893475,-0.04027320095,-0.248613152125,137.0,,-0.3335205625,-0.6114431625,0.5122371515,0.5024406195,0.5235988,,,,1.0,0
2017-06-11 02:34:02.888,2.4654744094999996,-1.61562753,0.26434840999999992,-1.746148025,-0.114537725505,-2.3295903875,,,-0.3257754295,-0.660636781,0.4366115995,0.5146656595,0.5235988,,,,,0
2017-06-11 02:34:02.988,-2.1161622734999996,-0.66888515670000004,0.59795981279999999,-1.25326048175,-1.477597908,-1.7690395925,,,-0.2819980475,-0.734411287,0.3482249445,0.508557051,0.5235988,,,,,0
2017-06-11 02:34:03.088,-3.0412461449999997,1.3300743785,3.714040965000001,-1.1538336441,-1.86602508718,-1.51510283333,,,-0.2239539395,-0.819412948,0.280929178,0.4448863605,0.5235988,,,,,0
2017-06-11 02:34:03.188,-4.4150585700000011,3.0466596450000001,2.4753667669999997,-0.0237355652195,-0.902237067976,-0.427266114829,,,-0.172301229,-0.870154844,0.245909897,0.3903833675,0.5235988,,,,,0
2017-06-11 02:34:03.288,-0.85767215000000019,2.9270957025,0.99547507290000026,1.09936889949,1.21850883359,0.653604280769,,,-0.1709062975,-0.861902766,0.2693487715,0.393472928,0.5235988,,,,,0
2017-06-11 02:34:03.388,2.471995309,-4.4624499000000002,1.1028827070000002,1.414486374,1.43386435675,0.7261952845,138.0,,-0.2008418755,-0.8016302915,0.3269134545,0.4573708155,0.5235988,,,,1.0,0
2017-06-11 02:34:03.488,-1.8150651414999994,-0.93139916238999998,0.5295432833,1.01065718488,1.34853837463,1.0052296822,,,-0.221211437,-0.7430843955,0.380657402,0.5030987395,0.5235988,,,,,0
2017-06-11 02:34:03.588,0.075786579899999998,1.7768113499999998,0.73855676100000001,0.4670147455,0.9600353755,1.112424056,,,-0.2687247195,-0.6812366225,0.4175880135,0.537409431,0.5235988,,,,,0
2017-06-11 02:34:03.688,1.3520097064999999,2.0438620000000003,0.24573090865,0.50885841025,0.09531945399,0.8131034105,,,-0.300980846,-0.64089617,0.4529645525,0.5415615125,0.5235988,,,,,0
2017-06-11 02:34:03.788,1.184883242535,0.82212722225000012,-0.33369250080000001,0.314732533875,0.0318884955025,0.526053709,,,-0.307066124,-0.6221736,0.483723294,0.533446394,0.5235988,,,,,0
2017-06-11 02:34:03.888,2.1192631450000001,-0.035493252400000022,0.17855465709999999,0.12367183459,-0.0794721203154,0.58155793359,,,-0.3150916845,-0.6117434465,0.499092951,0.52662074,0.5235988,,,,,0
2017-06-11 02:34:03.988,2.9986592950000004,-3.6002694200000001,-2.0338221169999997,-0.337517634215,-0.47710300745,0.091699389775,139.0,,-0.3235414285,-0.6094906935,0.5145231045,0.508948688,0.5235988,,,,1.0,0
2017-06-11 02:34:04.088,3.7776640735,-1.4451221950000002,-2.7124345275000001,-1.810963115,0.0285079934825,-1.74678684875,,,-0.314773205,-0.657620817,0.4702515385,0.4959166465,0.5235988,,,,,0
2017-06-11 02:34:04.188,-2.4199522515000003,-0.41495341625000004,2.7371146529749995,-0.791947207317,-0.687422435015,-1.98669783902,,,-0.2843993875,-0.707901674,0.375553609,0.5256236395,0.5235988,,,,,0
2017-06-11 02:34:04.288,-2.4993332015000003,0.78369823950000006,1.4390337205150001,-1.11080785769,-1.60568630513,-1.69351242051,,,-0.2205107985,-0.7772997715,0.3139403435,0.497221597,0.5235988,,,,,0
2017-06-11 02:34:04.388,-3.9775652950000002,2.0370102500000002,2.0037703850000002,-0.41119136739,-1.41891406585,-0.858791127951,,,-0.16301398,-0.8393745945,0.26339093,0.445913375,0.5235988,,,,,0
2017-06-11 02:34:04.488,-3.1066472100000007,3.58963783,0.99295847677500004,0.652539560256,0.45714898,0.537494719769,,,-0.1449418415,-0.8577996395,0.267580354,0.4139858945,0.5235988,,,,,0
2017-06-11 02:34:04.588,3.3159703294999998,-4.797785255,0.67639196700000015,1.23822125475,1.6412992815,0.8168831845,140.0,,-0.1813252435,-0.8082845145,0.314697702,0.4620736745,0.5235988,,,,1.0,0
2017-06-11 02:34:04.688,-2.8889269019999992,0.39297525500000008,0.151824809225,0.89181315575,1.3883473855,1.1415974825,,,-0.208428053,-0.7498776625,0.3652876475,0.5098009475,0.5235988,,,,,0
2017-06-11 02:34:04.788,0.42128510485000004,1.4121664494999999,0.70259442974999997,0.51138712925,1.2205468205,1.07774065825,,,-0.2595311085,-0.6832864635,0.3998002115,0.5525803525,0.5235988,,,,,0
2017-06-11 02:34:04.888,1.1233038585000001,1.4618022600000002,0.18371335700000002,0.44566701925,0.315610930375,0.9614993655,,,-0.2911519065,-0.6387052055,0.432519717,0.565694234,0.5235988,,,,,0
2017-06-11 02:34:04.988,1.137423165,1.1672810689999999,-0.60105250435000002,0.3331522665,0.0236102625075,0.55333727475,,,-0.3018420105,-0.617048774,0.461668581,0.561214568,0.5235988,,,,,0
2017-06-11 02:34:05.088,0.89310252550000002,0.67561434252499997,0.15560991750000003,0.0129630197925,0.0684617788,0.3622192415,,,-0.3002336465,-0.618751285,0.4680443045,0.5549127855,0.5235988,,,,,0
2017-06-11 02:34:05.188,2.8536377649999998,-2.3601423317000001,-0.71423317669999997,-0.0072135090125,-0.197213578815,0.34821811905,141.0,,-0.3108998745,-0.6097071235,0.480332328,0.54848534,0.5235988,,,,1.0,0
2017-06-11 02:34:05.288,2.0837164760000002,-2.3934881100000003,-4.2115655949999997,-1.11008166025,-0.620068878,-0.83099078025,,,-0.30551241,-0.636065499,0.4691111225,0.530605931,0.5235988,,,,,0
2017-06-11 02:34:05.388,0.29057986349999998,-0.86252954189999986,2.9931196695,-1.25351684763,0.1567946805,-1.90114950263,,,-0.292027665,-0.690098947,0.3869422665,0.536314026,0.5235988,,,,,0
2017-06-11 02:34:05.488,-3.15560369,-0.37405352749999998,-0.93980528949999997,-0.641842486425,-1.25371297675,-1.60624324,,,-0.2440116225,-0.735824455,0.3224415085,0.542254062,0.5235988,,,,,0
2017-06-11 02:34:05.588,-2.6267563949999997,0.39475687723499997,2.6604998549999999,-0.82124855525,-1.239685245,-1.216421015,,,-0.196573583,-0.797141604,0.264619654,0.5051179315,0.5235988,,,,,0
2017-06-11 02:34:05.688,-3.9468814649999997,1.6147964214999999,1.5199447980000003,-0.146958582285,-1.19927895475,-0.474707379435,,,-0.155752161,-0.844281583,0.230837094,0.457447063,0.5235988,,,,,0
2017-06-11 02:34:05.788,-1.7170282220899999,2.2714217830000001,0.19753136900000007,0.792336738049,0.78111818561,0.58279378061,,,-0.1477125685,-0.849139643,0.247063964,0.442479499,0.5235988,,,,,0
2017-06-11 02:34:05.888,1.3645550085000002,-2.8599895490000002,0.84743406195000015,1.25105118,1.34125995425,0.6608478265,142.0,,-0.171434698,-0.796122108,0.2970914985,0.497742263,0.5235988,,,,1.0,0
2017-06-11 02:34:05.988,-1.9496234252,-1.7911357189999997,0.27979161305,0.814514169,1.4366060165,1.1299653915,,,-0.1977562995,-0.7393187435,0.3514017855,0.538415722,0.5235988,,,,,0
2017-06-11 02:34:06.088,-0.53624382194999998,0.65721695279999992,0.87665906480000011,0.4568466255,1.2583179085,1.11040107375,,,-0.2497586785,-0.672558478,0.3878060115,0.578118874,0.5235988,,,,,0
2017-06-11 02:34:06.188,-0.26791945150000007,1.6348875700000001,0.082158456115,0.2544425145,0.5719965695,0.9464601445,,,-0.2919718725,-0.6252763845,0.419262775,0.589683006,0.5235988,,,,,0
2017-06-11 02:34:06.288,1.3740695695,0.96357345200000011,-0.43561776599999991,0.207984821463,0.324299470732,0.478087225854,,,-0.314023265,-0.5981777345,0.438239725,0.5928643125,0.5235988,,,,,0
2017-06-11 02:34:06.388,0.55119452580000006,-0.47701427462500001,0.15871182420000002,0.194764712775,0.229953853125,0.658052923,,,-0.324896264,-0.582822262,0.450511084,0.5930334105,0.5235988,,,,,0
2017-06-11 02:34:06.488,2.371416623,-2.7248839249999994,-1.569831685,-0.070085482725,-0.391099888982,0.28973812925,143.0,,-0.338241892,-0.5668223795,0.473169138,0.5833910945,0.5235988,,,,1.0,0
2017-06-11 02:34:06.588,3.7825047134999998,-2.0502076015000004,-4.1630571500000011,-1.5049080925,-0.165484790885,-1.19813437525,,,-0.3375573835,-0.6014819905,0.4509009275,0.5658794165,0.5235988,,,,,0
2017-06-11 02:34:06.688,-1.9451026240999998,-1.2113935660000001,2.5380017239999999,-1.0546095305,-0.221702235175,-2.1526065675,,,-0.321726266,-0.65862398,0.348953859,0.582909455,0.5235988,,,,,0
2017-06-11 02:34:06.788,-3.0966469300000008,0.23434164302499999,0.46910891194999993,-1.354276205,-2.0014157025,-1.6423640175,,,-0.274382501,-0.7371190795,0.277755721,0.549944609,0.5235988,,,,,0
2017-06-11 02:34:06.888,-3.3724729850000004,0.22074752284999999,2.5420825050000007,-1.07100887,-1.82112019512,-1.19745139244,,,-0.227010081,-0.823460292,0.212125125,0.4733859705,0.5235988,,,,,0
2017-06-11 02:34:06.988,-4.0591720599999999,1.94932299,1.7939735200000002,-0.147095771318,-0.515299314179,-0.125146067915,,,-0.2014780685,-0.8667464235,0.181764743,0.418364257,0.5235988,,,,,0
2017-06-11 02:34:07.088,0.60258262050000011,2.1771026528500004,-0.92436494699999994,0.55711704525,0.8837478815,0.424106348125,,,-0.2066687995,-0.858834051,0.1935173255,0.4266157535,0.5235988,,,,,0
2017-06-11 02:34:07.188,-0.28349555649999986,-1.7925685324999996,-0.21974791420000001,1.1503282395,1.20470904225,0.7147761046,144.0,,-0.2217909995,-0.8182566495,0.2258964615,0.479153606,0.5235988,,,,1.0,0
2017-06-11 02:34:07.288,-1.5808750395,-1.5119511800000001,0.69014852849999997,0.999667025128,1.53860865897,1.02797776231,,,-0.2517886545,-0.753948373,0.2855004145,0.534201015,0.5235988,,,,,0
2017-06-11 02:34:07.388,-0.66170789399999996,0.49772542399999986,1.0039843370000001,0.7577377295,1.98123918,1.071059515,,,-0.2994269515,-0.668372912,0.3258478105,0.596805549,0.5235988,,,,,0
2017-06-11 02:34:07.488,-0.42333070539999984,1.2104481469999999,-0.76617515149999993,0.54090662125,0.976884646,1.1962977225,,,-0.3369578945,-0.5942847475,0.357691762,0.636232281,0.5235988,,,,,0
2017-06-11 02:34:07.588,1.0407270585000001,1.4513070830000001,-0.03148202440000001,0.389848842,0.40547367325,0.97427606325,,,-0.3668325465,-0.544754529,0.3911684415,0.644602242,0.5235988,,,,,0
2017-06-11 02:34:07.688,0.64486248919999989,1.1113843265000001,-0.85587670650000014,0.35018785775,0.181588746675,0.681157433,,,-0.37697439,-0.519498846,0.4205024465,0.6411404575,0.5235988,,,,,0
2017-06-11 02:34:07.788,1.1806842715000001,1.0445477885000001,-0.76233826380999992,0.26791128075,0.189946832,0.40901388025,,,-0.3839014275,-0.4973799465,0.4401531215,0.6414545315,0.5235988,,,,,0
2017-06-11 02:34:07.888,0.88077851550000008,0.38500878149999995,-0.43498962490000004,0.10873497925,0.194791329725,0.411542602,,,-0.3890342715,-0.4831169985,0.4516907485,0.6412460975,0.5235988,,,,,0
2017-06-11 02:34:07.988,2.9360753599999998,0.11136798929999998,-1.035661234,0.037531535095,0.0076127793075,0.480616599,,,-0.394377263,-0.4775827785,0.4600719065,0.636150927,0.5235988,,,,,0
2017-06-11 02:34:08.088,4.5536713249999998,-1.2556939905,-2.1892342149999999,-0.668221036,-0.58440061085,-0.343213906675,145.0,,-0.3994943615,-0.485788918,0.465519021,0.622522274,0.5235988,,,,1.0,0
2017-06-11 02:34:08.188,0.020015340600000008,-2.3013417435000001,-0.072116413350000005,-1.7585520575,-0.8527111525,-1.8021525225,,,-0.3914705065,-0.5618439095,0.412915497,0.599199382,0.5235988,,,,,0
2017-06-11 02:34:08.288,0.40329929040000001,-0.71833453749999987,2.1386666575,-1.00432791425,-1.306017576,-1.949084505,,,-0.3595572615,-0.6525978745,0.3316744885,0.577548455,0.5235988,,,,,0
2017-06-11 02:34:08.388,-4.0787492099999998,0.48304128600000001,3.0369100899999997,-0.06021016625,-1.44331379,-1.70608776,,,-0.289280726,-0.73103016,0.2814415525,0.5492147335,0.5235988,,,,,0
2017-06-11 02:34:08.488,-5.3346789149999996,2.1302898799999999,3.3190368149999996,0.927987188,-0.93416257325,-0.438772924725,,,-0.216132182,-0.774783102,0.28075958,0.5232227195,0.5235988,,,,,0
2017-06-11 02:34:08.588,2.3559648915000002,-1.4057851275000002,-2.1586449915000001,1.4838265475,-0.61045973825,0.930728840625,,,-0.189091362,-0.7665554035,0.347605825,0.5049638055,0.5235988,,,,,0
2017-06-11 02:34:08.688,-0.42793720000000002,0.43184804349999995,-1.0672471765,0.43659024325,-0.324740950082,-0.464406164825,146.0,,-0.156239838,-0.7657613285,0.3964259235,0.4815362205,0.5235988,,,,1.0,0
2017-06-11 02:34:08.788,-2.0051561417999997,-1.086234546,3.3168026349999997,0.35189141565,-0.241399643375,-0.0636971344975,,,-0.140160762,-0.761103958,0.403051873,0.4884501045,0.5235988,,,,,0
2017-06-11 02:34:08.888,-0.88182759999999971,-1.8162526450000005,3.0559693999999999,0.9817557555,-0.3228510605,1.40274779225,,,-0.150145237,-0.742866136,0.4604298975,0.461370234,0.5235988,,,,,0
2017-06-11 02:34:08.988,-1.3698035181999999,0.83442843680000001,1.1942208803000001,1.155838195,-0.342149186,0.886516164,,,-0.1589485945,-0.711648304,0.52939546,0.43295571,0.5235988,,,,,0
2017-06-11 02:34:09.088,-0.30312576050000001,1.3235842814999998,0.19148060155000005,0.949308272,-0.0390221489425,1.03006762975,,,-0.1620130655,-0.6741848575,0.5919607855,0.4103579235,0.5235988,,,,,0
2017-06-11 02:34:09.188,1.5013603200000001,0.8295800861,-0.68708892622500006,0.527624176,0.15324045905,0.72936283525,,,-0.1759202,-0.642608087,0.635166835,0.390554832,0.5235988,,,,,0
2017-06-11 02:34:09.288,4.3837767550000004,0.2264683535,-1.3292615390000002,-0.25233968437,-0.166123625915,0.288167660575,,,-0.1872872575,-0.634728829,0.6470889815,0.378532769,0.5235988,,,,,0
2017-06-11 02:34:09.388,4.3161671802649995,-0.93541629649999991,-0.78809328649999988,-1.5113496645,-1.6722827655,-1.44091815825,147.0,,-0.1579725502,-0.680623581,0.618394838,0.3574888985,0.5235988,,,,1.0,0
2017-06-11 02:34:09.488,1.3906102279999999,-3.2316758505000003,3.3921123199999998,-1.3400355175,-0.830059148,-2.06628403,,,-0.07965330645,-0.762708374,0.531480051,0.3578190545,0.5235988,,,,,0
2017-06-11 02:34:09.588,-1.9637650465000001,-0.31450874338000007,4.8168414349999997,0.241639205808,-2.198416335,-2.1223683725,,,0.024911589065,-0.8003874195,0.4816938435,0.3537624195,0.5235988,,,,,0
2017-06-11 02:34:09.688,-5.085355785,1.362849765,5.0171744899999986,1.3062571385,-1.8279987075,-1.2874647485,,,0.156166827,-0.8082011945,0.4770592685,0.3055453685,0.5235988,,,,,0
2017-06-11 02:34:09.788,-3.7894809690000009,0.389196765,0.65709527084999997,2.05829861,-0.083394539975,0.774773320982,,,0.221656633,-0.7749311195,0.5323129885,0.256686737,0.5235988,,,,,0
2017-06-11 02:34:09.888,5.3304259530000007,-0.61664517247499995,-3.3603577085000014,0.1969473939,-0.66510672094,-0.453971867175,148.0,,0.235284677,-0.749747247,0.5816506925,0.2096209485,0.5235988,,,,1.0,0
2017-06-11 02:34:09.988,-1.231420271,-1.6119203749999997,3.6743319720000001,0.3442254046,-0.465524123955,-0.260777628057,,,0.261918272,-0.743392944,0.578274645,0.21033531,0.5235988,,,,,0
2017-06-11 02:34:10.088,-1.6123174380000003,-2.1769835957500003,4.3620238500000008,0.98790453275,-0.16380784975,1.576830221,,,0.250467099,-0.7357600115,0.606294575,0.1658818065,0.5235988,,,,,0
2017-06-11 02:34:10.188,-1.6651809499999999,1.0850752770000001,1.9071131431499999,1.3254754075,-0.369246421092,0.922184423,,,0.2237724305,-0.714408984,0.6537196335,0.10763500285,0.5235988,,,,,0
2017-06-11 02:34:10.288,0.45595936524500003,1.61933185,0.15582059839999995,0.987611742,-0.0829154139325,1.0791514335,,,0.198790235,-0.6833903725,0.700125396,0.0532081407,0.5235988,,,,,0
2017-06-11 02:34:10.388,2.2506838624999999,1.0029474530000004,-0.44481565682500007,0.56630028875,-0.009422811335,0.7973720985,,,0.176043814,-0.662384348,0.7279960705,0.01202871737,0.5235988,,,,,0
2017-06-11 02:34:10.488,5.1120050350000001,-0.03850358059999999,-1.9706225370000006,-0.366664467675,-0.54500580075,0.231923591775,,,-0.1689982975,0.658347078,-0.7333004335,0.01411774303,0.5235988,,,,,0
2017-06-11 02:34:10.588,4.4778256209999991,-2.1176499566000002,1.053788167,-1.73274342564,-2.08825216667,-1.62441453667,149.0,,-0.235112712,0.688217866,-0.683972594,0.03174178755,0.5235988,,,,1.0,0
2017-06-11 02:34:10.688,2.4125555298500001,-3.0596749735000004,4.6342984100000013,-0.987337106902,-1.17672822024,-2.19998030976,,,0.166378682,-0.2819495005,0.231061588,0.014372258385,0.5235988,,,,,0
2017-06-11 02:34:10.788,-2.6869163500000002,0.56254498249999996,6.6850514599999995,0.75938806515,-2.98987921,-2.00764435,,,0.0129819205,-0.0837852065,0.0672228125,0.015662913125,0.5235988,,,,,0
2017-06-11 02:34:10.888,-5.1631965249999991,1.6031032850000002,5.6542164300000008,1.72045813846,-1.95005640872,-1.37936410308,,,-0.613758171,0.577469709,-0.5314044775,0.07412081785,0.5235988,,,,,0
2017-06-11 02:34:10.988,0.82310656499999957,-0.8423428677,-1.9151993189999998,1.941711286,-0.267618476075,0.572635402225,,,-0.638277988,0.507106807,-0.558551314,0.14979296695,0.5235988,,,,,0
2017-06-11 02:34:11.088,3.1159809149999993,1.150700668,-0.16980004500000007,0.333076956366,-0.679683709024,-0.808151792683,150.0,,-0.652115418,0.467383002,-0.5601955415,0.205238455,0.5235988,,,,1.0,0
2017-06-11 02:34:11.188,-3.6262966629999993,-1.7004798224999997,3.5559430032499995,0.41647104559,-0.639708259456,-0.309616397974,,,-0.666877796,0.433946517,-0.568056325,0.2099641715,0.5235988,,,,,0
2017-06-11 02:34:11.288,0.73508974699999996,-2.7369385228000005,4.3198913450000003,0.7751193615,0.8819378537,1.79765407,,,-0.636265576,0.44643214,-0.5752499795,0.2526460495,0.5235988,,,,,0
2017-06-11 02:34:11.388,-1.2836892654999998,1.8156385560000001,1.9300260745,1.445230285,-0.200514222125,0.9894483935,,,-0.5832000205,0.4533379015,-0.59588829,0.3140185705,0.5235988,,,,,0
2017-06-11 02:34:11.488,-0.055334361600000007,1.3386653399999999,-0.50298216400000006,1.02993454625,0.40369025775,1.0492858975,,,-0.5338191685,0.445353878,-0.608743412,0.3816172635,0.5235988,,,,,0
2017-06-11 02:34:11.588,2.6918480320000002,0.85183936399999993,-0.54596271799999996,0.386202162375,0.580248178,0.7963073755,,,-0.4860248905,0.4538195365,-0.621561596,0.4139198155,0.5235988,,,,,0
2017-06-11 02:34:11.688,6.8616162099999993,0.55022760050000008,-1.1929621261349999,-0.298601959615,-0.15808495475,0.1265158763,,,-0.4653859325,0.466633017,-0.621965365,0.422848789,0.5235988,,,,,0
2017-06-11 02:34:11.788,3.7558045464999994,-2.7315810354600005,-1.1595974864999998,-1.71356745325,-1.8651842175,-1.748650112,151.0,,-0.5324134,0.4544784995,-0.587133778,0.403862945,0.5235988,,,,1.0,0
2017-06-11 02:34:11.888,0.65738187449999996,-5.5783002899999996,1.7303073259999997,-1.91208123333,-0.369896177692,-2.36188635128,,,-0.649725629,0.4223548275,-0.54964419,0.3088446285,0.5235988,,,,,0
2017-06-11 02:34:11.988,0.13260060900000004,-1.5219107087500001,4.7523460449999995,-0.533746346525,-1.99257847475,-2.5495890175,,,-0.7274234,0.3662298175,-0.5352766545,0.2214968535,0.5235988,,,,,0
2017-06-11 02:34:12.088,-4.9194655799999998,0.41383930549999998,3.7581028499999993,-0.0401401095325,-2.9997013175,-2.0589640675,,,-0.823326134,0.2549643785,-0.460059093,0.2061707115,0.5235988,,,,,0
2017-06-11 02:34:12.188,-1.5490859727999999,1.9638609319999998,1.1132213425999999,0.389848841215,-1.2454879905,-1.368383795,,,-0.887316323,0.15928618495,-0.38452223,0.1963426645,0.5235988,,,,,0
2017-06-11 02:34:12.288,-2.1042386235000001,3.8963932299999997,0.066963412499999958,1.5167797725,-0.304378087125,-0.368527723925,,,-0.9011453875,0.0822965535,-0.3611107715,0.2238144375,0.5235988,,,,,0
2017-06-11 02:34:12.388,-0.48530539499999986,-5.4379668294999997,1.9016235450000003,1.19555242,2.4153006925,0.54596405925,152.0,,-0.8615566975,0.0844738693,-0.408720714,0.2855802085,0.5235988,,,,1.0,0
2017-06-11 02:34:12.488,-2.0648076375000004,-3.2101358185000004,1.0810591080500001,1.0813607155,1.480525895,0.95114492375,,,-0.7923601085,0.115494381,-0.491693686,0.3407701795,0.5235988,,,,,0
2017-06-11 02:34:12.588,-0.21282990220000006,0.35679721199999992,2.1551643020000002,0.561135731707,1.11933697732,1.45836079756,,,-0.732344061,0.1718223725,-0.528334888,0.392611532,0.5235988,,,,,0
2017-06-11 02:34:12.688,0.31751262367499999,0.43056683840000004,0.26435418460000004,0.870758248,0.169237942442,1.2591430775,,,-0.6893616265,0.211247567,-0.5259925055,0.4505523775,0.5235988,,,,,0
2017-06-11 02:34:12.788,2.0710995050000003,0.27054201540000006,-0.0024010113000000055,0.59190691325,0.55581275785,1.0814671925,,,-0.6468446305,0.2373547925,-0.523620232,0.500738718,0.5235988,,,,,0
2017-06-11 02:34:12.888,3.0851290099999997,-1.7318936850000004,-3.4945321100000002,-0.217815994575,-0.384605073075,0.281459897525,,,-0.627042169,0.253981455,-0.510013646,0.531129852,0.5235988,,,,,0
2017-06-11 02:34:12.988,2.1734700135000002,-2.29021338,-2.5687286012500001,-1.930292115,0.5238976429,-1.926672036,,,-0.662760705,0.2565836985,-0.5140803205,0.4784992265,0.5235988,,,,,0
2017-06-11 02:34:13.088,-3.4333445120000001,-1.4567951449999998,1.1147355460000001,-0.93850133325,-0.905361777338,-1.86611586,,,-0.7147309445,0.2356778815,-0.5436098055,0.3706997595,0.5235988,,,,,0
2017-06-11 02:34:13.188,-2.3895775784999995,0.60673024504999995,2.1042719122499998,-1.34413470375,-1.61095464,-1.34432104,,,-0.789360199,0.1977593675,-0.494430225,0.3034084435,0.5235988,,,,,0
2017-06-11 02:34:13.288,-3.8503415700000003,1.7070982699999999,2.416938375,-0.362698372585,-1.3748253775,-0.596990970725,,,-0.847899087,0.1537250675,-0.439522752,0.2524083155,0.5235988,,,,,0
2017-06-11 02:34:13.388,-3.8015319999999995,2.7877767774999995,-1.0087690715000002,0.8045057575,1.27934622155,1.0454528925,,,-0.8543235065,0.150126076,-0.416123271,0.2714190505,0.5235988,,,,,0
2017-06-11 02:34:13.488,2.7160185621000004,-2.4349872609999998,2.1715470174999996,1.26318902825,1.82962241275,0.817894668,153.0,,-0.779881601,0.2028491705,-0.49637873,0.321167139,0.5235988,,,,1.0,0
2017-06-11 02:34:13.588,-1.1916358255000001,-0.86917883249999994,-0.059118727299999993,0.69316220675,1.6360555025,1.2052946325,,,-0.7107428265,0.240530474,-0.5474265745,0.3689979995,0.5235988,,,,,0
2017-06-11 02:34:13.688,0.9491736784999999,1.519796945,1.0383672740000001,0.37158881725,0.781694029708,1.15096709,,,-0.6473279385,0.2902127565,-0.579593175,0.4005275085,0.5235988,,,,,0
2017-06-11 02:34:13.788,0.80543577300000013,1.5928584959999998,-0.44755198395000007,0.725159220513,-0.352123469641,0.838511420513,,,-0.6150475665,0.2939793195,-0.582095525,0.4429169015,0.5235988,,,,,0
2017-06-11 02:34:13.888,0.64178307530000001,-0.36033903449999999,-0.99191976450000008,0.4151094295,0.24129316875,0.832188597,,,-0.5942077365,0.297036482,-0.5672288525,0.486563249,0.5235988,,,,,0
2017-06-11 02:34:13.988,3.8540648200000001,-2.4585948600000003,-3.0350102629999998,-0.06729058135,-0.39887237355,0.45304023305,155.0,,-0.574992037,0.313816736,-0.554382792,0.5132780795,0.5235988,,,,1.0,0
2017-06-11 02:34:14.088,5.4975009665999988,-1.8141475699999998,-4.1097712884999993,-1.75614604049,-0.00218138822927,-1.83537714171,,,-0.613176551,0.3128196415,-0.5395744505,0.483360285,0.5235988,,,,,0
2017-06-11 02:34:14.188,-3.741547755,-1.6123128649999998,1.6321399085000003,-0.641073293077,-1.03742377662,-2.23720434872,,,-0.6826614265,0.274010916,-0.564773288,0.3724780915,0.5235988,,,,,0
2017-06-11 02:34:14.288,-1.3511977545,-0.11115898625000012,1.3348019983999999,-1.183467799,-1.62809672,-1.6952009575,,,-0.7580066615,0.213161468,-0.530205637,0.3129047835,0.5235988,,,,,0
2017-06-11 02:34:14.388,-4.9666694299999996,2.9349819449999996,2.5253286015,0.1429658725,-1.222915824,-0.5336931063,,,-0.813724857,0.1595768985,-0.486034859,0.2750524395,0.5235988,,,,,0
2017-06-11 02:34:14.488,-4.2077825407500002,1.1250128850000005,1.6447566829999996,1.18708786025,2.394698284,1.21697998975,,,-0.7897891965,0.16519365,-0.498894555,0.3135585315,0.5235988,,,,,0
2017-06-11 02:34:14.588,0.36389289500000027,-1.8912698875000005,-1.0014563425000003,0.8564643165,1.1967768425,0.74203305475,156.0,,-0.7080003775,0.2090364005,-0.570952944,0.358550107,0.5235988,,,,1.0,0
2017-06-11 02:34:14.688,0.74964219899999995,-0.88189687820000007,0.23827989695000004,0.064495679725,1.5671678585,1.5026987925,,,-0.641037569,0.2743313155,-0.597277398,0.394950446,0.5235988,,,,,0
2017-06-11 02:34:14.788,1.2408436967000003,2.5746914200000002,0.28458324200000001,0.50779368725,0.186273533912,0.87621494825,,,-0.5929801315,0.3185595655,-0.605729749,0.423987408,0.5235988,,,,,0
2017-06-11 02:34:14.888,0.87376849249999999,0.89098932350000015,-1.429800357,0.4901724985,0.103012085075,0.7236665595,,,-0.5775679225,0.3206836355,-0.5960372835,0.4563331215,0.5235988,,,,,0
2017-06-11 02:34:14.988,2.8196982424999999,-0.81272748262499994,-0.95464194870000019,0.112168715983,0.1267022043,0.634682215,,,-0.56364566,0.334610142,-0.5883232605,0.473403817,0.5235988,,,,,0
2017-06-11 02:34:15.088,2.7454845500000005,-2.4058966650000002,-3.9372817949999996,-0.5871688996,-0.77184534075,-0.2249230325,,,-0.572708227,0.3364202875,-0.567152319,0.486759476,0.5235988,,,,,0
2017-06-11 02:34:15.188,3.5376902714999998,-1.4624896417500002,0.20894275550000013,-1.5990829475,0.364535017688,-2.2142540975,,,-0.62719045,0.3307324285,-0.565081834,0.419665559,0.5235988,,,,,0
2017-06-11 02:34:15.288,-3.7672092500000014,-0.53256966100000003,-0.90266948399999991,-0.817435333333,-1.63252283938,-1.76736060769,,,-0.6921984905,0.28830669,-0.5716640735,0.3310224365,0.5235988,,,,,0
2017-06-11 02:34:15.388,-2.3900987520000005,0.62238932669999991,2.8435117679999999,-1.14889087225,-1.7842917875,-1.44296775,,,-0.7821423535,0.233061691,-0.50928374,0.2705632865,0.5235988,,,,,0
2017-06-11 02:34:15.488,-3.7583778950000002,2.3976710349999997,2.6074867250000002,0.133973490756,-1.21233157268,-0.31728787561,,,-0.8405499365,0.188357539,-0.448282439,0.2379344395,0.5235988,,,,,0
2017-06-11 02:34:15.588,-1.5615130343000001,0.25540948650000017,0.96210485599999984,1.187700074,2.094818669,0.98159604875,,,-0.826376429,0.1951920645,-0.4508637165,0.272980032,0.5235988,,,,,0
2017-06-11 02:34:15.688,0.23713598799999983,-1.3624779164749998,0.40756672449999998,0.9946389235,1.4707836725,0.840227267,158.0,,-0.7532230975,0.233754014,-0.5259481835,0.3172413485,0.5235988,,,,1.0,0
2017-06-11 02:34:15.788,-0.14084271554999994,-0.22439575849999996,0.794688846,0.36868744475,1.6572169225,1.319885595,,,-0.683003414,0.280913986,-0.5715950355,0.3561968645,0.5235988,,,,,0
2017-06-11 02:34:15.888,1.0236328945000002,2.0134038300000001,0.57824087299999993,0.366797558,0.41691946577,1.08202618925,,,-0.6240199145,0.3251574765,-0.601436915,0.3779526935,0.5235988,,,,,0
2017-06-11 02:34:15.988,1.0168958745000001,1.5756682874999999,-0.62061464249999998,0.46496515075,-0.1379882815,0.6306895015,,,-0.5990180295,0.3387852355,-0.5949556995,0.4151110795,0.5235988,,,,,0
2017-06-11 02:34:16.088,0.58937856049999993,0.74159124650000008,0.17512121949999998,0.24991743575,-0.0023157755325,0.5705591895,,,-0.5910342105,0.338888882,-0.5881152655,0.4357749885,0.5235988,,,,,0
2017-06-11 02:34:16.188,3.6757374199999999,-1.499348202,-0.13805535677499997,0.44058296,-0.328494096935,0.67255979,159.0,,-0.571350511,0.3455687345,-0.582571774,0.4632288005,0.5235988,,,,1.0,0
2017-06-11 02:34:16.288,4.5559762450000001,-3.2715171869999997,-4.6853230750000003,-0.699976439805,-1.278627526,-0.417318729115,,,-0.5883591355,0.329045795,-0.5538973695,0.488144846,0.5235988,,,,,0
2017-06-11 02:34:16.388,1.604598561,-1.5316360399999998,2.2670627750000003,-1.49082711,-1.0609180095,-2.130034405,,,-0.6719981655,0.292001939,-0.527240627,0.428366101,0.5235988,,,,,0
2017-06-11 02:34:16.488,-1.2719590715,-0.84454176349999999,1.5836972829999998,-1.039889719,-2.6091870275,-1.9638309275,,,-0.759188397,0.222693483,-0.488737103,0.3643147185,0.5235988,,,,,0
2017-06-11 02:34:16.588,-2.8937880050000002,0.26361199089999998,3.8466164950000001,-0.79750519425,-2.5556047675,-2.0360458825,,,-0.8522658065,0.1168543557,-0.408723322,0.300881814,0.5235988,,,,,0
2017-06-11 02:34:16.688,-4.3037789750000019,1.3140002814999998,3.0279750900000004,-0.107404075075,-1.5628823245,-1.0884411375,,,-0.908491989,0.022775689715,-0.328128934,0.256102415,0.5235988,,,,,0
2017-06-11 02:34:16.788,-1.9365619134500005,3.2055574849999999,0.48679783250000008,0.758376579,0.178527663267,-0.347738991775,,,-0.916743312,-0.02500775375,-0.305153487,0.2563327125,0.5235988,,,,,0
2017-06-11 02:34:16.888,0.49474855299999998,-1.9133931306999998,-0.98806280849999983,1.10133454718,1.40142303154,0.314694313051,160.0,,-0.893937552,-0.03416635665,-0.341091548,0.2877196785,0.5235988,,,,1.0,0
2017-06-11 02:34:16.988,-1.4470422570999999,-2.162888519,1.9616111715,0.868113961951,1.71070049512,0.92664783439,,,-0.849944464,-0.00295109391,-0.395256378,0.3469387905,0.5235988,,,,,0
2017-06-11 02:34:17.088,-0.70470189600000011,0.075074138900000059,3.0448853250000001,0.653303972051,1.70284923077,1.32495397179,,,-0.7963480985,0.0648246879,-0.448824439,0.398675667,0.5235988,,,,,0
2017-06-11 02:34:17.188,0.35893692800000021,0.59901669909999999,1.2894033924999999,1.00985215171,0.202453445366,1.16267904146,,,-0.7405485185,0.115900833,-0.4793410495,0.455954386,0.5235988,,,,,0
2017-06-11 02:34:17.288,0.010664991500000054,1.1109437639999999,0.5088386465200001,0.81512638625,-0.425091221,1.1382968545,,,-0.7137840965,0.1321285085,-0.4531537355,0.517056945,0.5235988,,,,,0
2017-06-11 02:34:17.388,0.58407371460000002,1.136414185,-0.29761366927499999,0.66602606641,-0.528185209231,0.578172652308,,,-0.696119332,0.125725079,-0.426477903,0.5634917865,0.5235988,,,,,0
2017-06-11 02:34:17.488,-0.097367752000000016,0.92926287499999982,0.088418898600000004,0.417584911,-0.45298699225,0.47132687275,,,-0.689976073,0.1139267347,-0.3977536965,0.5938234635,0.5235988,,,,,0
2017-06-11 02:34:17.588,1.6544872237999999,-0.51919892199999995,0.91924936600000007,0.33778381675,-0.1367904674,0.889683714,,,-0.67947195,0.12221794685,-0.3703368545,0.621317967,0.5235988,,,,,0
2017-06-11 02:34:17.688,4.3835329950000004,-2.8811987154999996,-1.12199875665,0.0211347803,-1.01082274325,0.40499454425,161.0,,-0.673922314,0.129395815,-0.3324818855,0.646718797,0.5235988,,,,1.0,0
2017-06-11 02:34:17.788,3.6050505649999991,-1.8951633924500002,-0.357906004,-1.31775615525,-1.05287934525,-1.58830263275,,,-0.7135953395,0.0879065659,-0.3082323415,0.621988629,0.5235988,,,,,0
2017-06-11 02:34:17.888,-1.8635727594999998,-2.7607009200000001,3.1098764450000003,-0.595393886,-1.6788308275,-2.270711115,,,-0.7687550445,-0.01498094346,-0.3116860615,0.556893955,0.5235988,,,,,0
2017-06-11 02:34:17.988,-1.4179915482500001,-0.57439265849999999,3.2169419299999999,-0.34182977063,-1.56719447,-2.5207616175,,,-0.785364827,-0.1261212228,-0.3176173815,0.5145300175,0.5235988,,,,,0
2017-06-11 02:34:18.088,-3.8404456300000001,0.0041696952500000052,4.0852654700000004,0.43810747425,-2.55020126,-2.0514311175,,,-0.7937177925,-0.2697247435,-0.291775704,0.45799734,0.5235988,,,,,0
2017-06-11 02:34:18.188,-6.2105833399999995,2.60036793,2.5804509425000002,1.43407729125,-0.419315086418,-0.260937334775,,,-0.7787070645,-0.372194713,-0.2340289935,0.4469217345,0.5235988,,,,,0
2017-06-11 02:34:18.288,1.2641141412999999,-4.1637583430000005,1.5177380779999996,1.6298002625,1.50107507925,0.64120365125,,,-0.737519223,-0.353530049,-0.228849629,0.526643103,0.5235988,,,,,0
2017-06-11 02:34:18.388,-3.1124469000000006,-1.6343983665000004,-0.45345584495000002,1.042205485,1.0996207445,1.29148408,162.0,,-0.699941731,-0.3049616845,-0.2191168595,0.606775623,0.5235988,,,,1.0,0
2017-06-11 02:34:18.488,0.51925536100000003,-0.3126358226,1.6065307909999997,0.455435864,1.18775330525,1.465859315,,,-0.6865040995,-0.205209499,-0.20184888,0.667027586,0.5235988,,,,,0
2017-06-11 02:34:18.588,-0.49070463069999998,1.7275424799999999,0.46483951414999991,0.528555818,-0.0492168858375,1.05096286075,,,-0.6734168175,-0.1518355955,-0.173659618,0.7021472135,0.5235988,,,,,0
2017-06-11 02:34:18.688,0.66714560957000002,1.0880701619999997,-0.44082815680000004,0.4048614545,0.4025456802,0.74559988225,,,-0.661310127,-0.1275034189,-0.145400168,0.7247060945,0.5235988,,,,,0
2017-06-11 02:34:18.788,2.7781837949999999,-1.1592849937500003,-0.23298878749999999,0.3358673145,0.0151989396175,0.650626466,163.0,,-0.649106452,-0.10593911675,-0.13695747525,0.7406511595,0.5235988,,,,1.0,0
2017-06-11 02:34:18.888,3.1756313650000001,-2.8230168349999993,-4.0822460899999999,-0.6726130147,-0.72899018075,-0.164260356182,,,-0.6513965455,-0.1091985498,-0.1090781006,0.742710593,0.5235988,,,,,0
2017-06-11 02:34:18.988,4.2464685874999999,-2.0145116289999998,1.5571207550000001,-1.51965452175,0.045490347645,-2.405159205,,,-0.6942347115,-0.157624254,-0.1491495365,0.684852918,0.5235988,,,,,0
2017-06-11 02:34:19.088,-3.8492161064999997,-0.71724378629999996,0.058071523,-1.16869473625,-2.4742864325,-1.8301548025,,,-0.720349072,-0.2556300535,-0.19531514,0.612629132,0.5235988,,,,,0
2017-06-11 02:34:19.188,-1.9227305370000001,-1.022810993,3.1783900740000002,-1.4385491425,-2.043392465,-1.901890585,,,-0.7529128455,-0.37342359,-0.183437924,0.507921208,0.5235988,,,,,0
2017-06-11 02:34:19.288,-4.2814885649999992,1.3001798185749998,3.2708810450000003,-0.345582925875,-1.72264424275,-0.9846305165,,,-0.762305235,-0.4703961845,-0.1631239125,0.4123219245,0.5235988,,,,,0
2017-06-11 02:34:19.388,-1.7426978949999998,3.9156841849999999,-0.70584842850000007,0.70647125085,0.5480136544,0.138999771075,,,-0.753555559,-0.5007718155,-0.1387485245,0.4023929385,0.5235988,,,,,0
2017-06-11 02:34:19.488,-0.12756924650000023,-1.8428533935000004,0.8872945685000001,1.02892305175,1.0918216276,0.77791426395,164.0,,-0.738891027,-0.465691866,-0.1463243305,0.463674877,0.5235988,,,,1.0,0
2017-06-11 02:34:19.588,-1.2965784059999999,-1.9052760042999999,1.8297126384999998,0.786618385,1.8566930425,1.2874913675,,,-0.730693223,-0.3928552775,-0.140692014,0.539076588,0.5235988,,,,,0
2017-06-11 02:34:19.688,1.1579325025,1.0225789769999998,2.1629653234999999,0.8612555735,1.647474675,1.3490856825,,,-0.712074517,-0.288714508,-0.1643257075,0.6175308025,0.5235988,,,,,0
2017-06-11 02:34:19.788,-0.5356192797999999,1.4340418774999999,0.027859855850000004,0.794523967,0.0468744931775,1.629720415,,,-0.6922120715,-0.223751505,-0.1362893097,0.671945256,0.5235988,,,,,0
2017-06-11 02:34:19.888,1.5881089999999998,1.72353815,0.62358152750000007,0.8692143855,-0.6267500205,1.08806849125,,,-0.6760170685,-0.191843923,-0.07564810035,0.7071117115,0.5235988,,,,,0
2017-06-11 02:34:19.988,0.23425729486499999,0.91203777800000019,-0.27636373719999996,0.6755410155,-0.554588325,0.848265941,,,-0.6535647045,-0.1929964895,-0.01418128748,0.7314967365,0.5235988,,,,,0
2017-06-11 02:34:20.088,1.2094231769999999,0.82364564600000012,0.090823125350000006,0.446066288,-0.295833675575,0.86527490525,,,-0.6398268565,-0.184315559,0.0357604729,0.7451031825,0.5235988,,,,,0
2017-06-11 02:34:20.188,5.4741935049999997,-0.34546439004999996,-2.5209482222499999,0.127439320692,-0.292143998795,0.478743771744,165.0,,-0.629695819,-0.17001143,0.07321793995,0.754403382,0.5235988,,,,1.0,0
2017-06-11 02:34:20.288,4.9432334999999998,-2.7010092445000002,-0.23006814790000005,-1.48178476146,-1.9127124778,-1.6903408822,,,-0.6435184845,-0.225443349,0.08108722595,0.725663185,0.5235988,,,,,0
2017-06-11 02:34:20.388,0.20579275394999996,-4.1580154,2.9234125,-1.126505041,-1.9162909875,-2.4515545375,,,-0.6535931015,-0.3749030485,0.0515141034,0.6537232985,0.5235988,,,,,0
2017-06-11 02:34:20.488,-0.57596016849999998,-2.0679201484999998,4.7734424049999999,-0.344358486025,-2.118828175,-2.96834516,,,-0.6167002955,-0.5082843035,0.0052567818365,0.5996498085,0.5235988,,,,,0
2017-06-11 02:34:20.588,-3.9370616100000007,-1.0378259745,3.83565442,0.222281692564,-2.99911023846,-2.49912659744,,,-0.53928683,-0.652857053,0.0072614331775,0.5287304565,0.5235988,,,,,0
2017-06-11 02:34:20.688,-3.4998915750000004,1.4035430661999999,1.6044239624999999,0.68059846225,-1.3032226775,-1.401124086,,,-0.459912559,-0.75722447,0.02739333695,0.461981599,0.5235988,,,,,0
2017-06-11 02:34:20.788,-2.5272443372749995,2.0414125329999999,0.17440041400000003,1.5562012,0.737561210625,0.17432200574,,,-0.4090915775,-0.7758149335,0.0629524192,0.4754472505,0.5235988,,,,,0
2017-06-11 02:34:20.888,-1.9728160250000002,-4.9905458325000005,1.80582994,1.4075390425,1.72320322025,0.7231874325,166.0,,-0.395966436,-0.717500132,0.107497409,0.5619436945,0.5235988,,,,1.0,0
2017-06-11 02:34:20.988,-0.65732681399999993,-2.8828435114999995,1.6676170835000002,0.57905036575,1.6501631225,1.589899715,,,-0.428035647,-0.6357684235,0.149467729,0.623712241,0.5235988,,,,,0
2017-06-11 02:34:21.088,1.0536752192000001,-0.32929274120000007,1.8657704985000003,0.770913703,0.2797030938,1.574620925,,,-0.467123332,-0.5543761085,0.197526503,0.659377701,0.5235988,,,,,0
2017-06-11 02:34:21.188,0.55913599874999997,1.2094161935000001,-1.21894625345,0.755022695,0.6064404024,1.07515869925,,,-0.4763206285,-0.508831227,0.256395774,0.669430971,0.5235988,,,,,0
2017-06-11 02:34:21.288,4.1326012949999988,0.29918646780000013,-2.2788591599999997,-0.028641087175,-0.270599718168,0.482692811025,,,-0.487370306,-0.473644334,0.2828508995,0.676789434,0.5235988,,,,,0
2017-06-11 02:34:21.388,5.3321005449999994,-2.3719914849999997,-1.2781202859999996,-1.14825203575,-0.524642950775,-1.41110587025,167.0,,-0.489353694,-0.513283889,0.2752874545,0.6484889805,0.5235988,,,,1.0,0
2017-06-11 02:34:21.488,-2.7175115815000002,-3.1150507799999998,1.2702387710000003,-0.675008655,-1.6442272772,-2.25995741,,,-0.453248402,-0.5972918655,0.1984178905,0.629844355,0.5235988,,,,,0
2017-06-11 02:34:21.588,-2.5069790091000002,-0.81077450799999995,2.6604496215000006,-1.193369724,-1.834094265,-1.657270145,,,-0.4136636295,-0.697323759,0.160221064,0.561791172,0.5235988,,,,,0
2017-06-11 02:34:21.688,-3.9007810900000002,3.0267951900000001,3.8866275349999997,0.09627769855,-1.54494171962,-0.513277023205,,,-0.3775218435,-0.773905096,0.1378929135,0.4886971765,0.5235988,,,,,0
2017-06-11 02:34:21.788,-3.0023175849999992,0.070002199999999709,1.1151624735000001,1.1390421655,1.857651274,0.8597117135,,,-0.371802956,-0.7610250155,0.172590925,0.5016362055,0.5235988,,,,,0
2017-06-11 02:34:21.888,0.33218030550000011,-1.1075425888250001,1.3197274534999999,0.79875624925,1.44323393875,1.009252265,168.0,,-0.395012782,-0.6834850285,0.19770278,0.5804251495,0.5235988,,,,1.0,0
2017-06-11 02:34:21.988,0.18912323049999996,-0.13170486880000001,1.2545115225000001,0.728723997,0.9065596035,1.478103665,,,-0.426407729,-0.6093709025,0.235419646,0.6250362415,0.5235988,,,,,0
2017-06-11 02:34:22.088,0.5128673547999999,1.7685111904999999,0.61444891999999984,0.58378838475,0.00399271565,1.07795360975,,,-0.450339243,-0.555033791,0.2848510775,0.638504917,0.5235988,,,,,0
2017-06-11 02:34:22.188,0.9317119131999998,1.3046973774999997,-0.38312317250000005,0.5530444765,-0.14389750354,0.670696516,,,-0.449545525,-0.534982058,0.3306488545,0.634226742,0.5235988,,,,,0
2017-06-11 02:34:22.288,3.3978023299999998,-1.3685831072500001,-0.57412771664999995,0.170142959225,-0.081025528125,0.538218186,,,-0.4524437145,-0.51762342,0.357334366,0.632134642,0.5235988,,,,,0
2017-06-11 02:34:22.388,4.77968802,-2.5068663350000002,-5.2915753200000006,-0.8503421474,-0.68725298975,-0.587488316875,169.0,,-0.4525845065,-0.533824884,0.366394977,0.6128848135,0.5235988,,,,1.0,0
2017-06-11 02:34:22.488,1.176082047,-1.9646204969999999,3.9040650834999995,-0.99788633015,-0.476916679575,-2.273958515,,,-0.4381945605,-0.6006236455,0.296201394,0.598419888,0.5235988,,,,,0
2017-06-11 02:34:22.588,-3.9897059549999994,-0.36728717849999998,-0.73616374129999984,-0.7854738138,-1.9398213975,-1.7168148675,,,-0.378226876,-0.681147879,0.2491733655,0.5738370985,0.5235988,,,,,0
2017-06-11 02:34:22.688,-2.5986944599999999,1.2819564999999997,3.7200337250000004,-0.661060765957,-1.6052317575,-1.4084174365,,,-0.32805043,-0.7679238525,0.200864639,0.511097134,0.5235988,,,,,0
2017-06-11 02:34:22.788,-5.9750735099999996,3.9028850299999993,1.6229503480000003,0.8605102665,0.0373185885,0.269268805375,,,-0.288682117,-0.8099580555,0.202106131,0.468516575,0.5235988,,,,,0
2017-06-11 02:34:22.888,3.0565522215000005,-4.3089228479999999,1.5449864954999999,1.14614920025,2.18034264875,0.9810370625,170.0,,-0.314588949,-0.743071379,0.2420409695,0.537111056,0.5235988,,,,1.0,0
2017-06-11 02:34:22.988,-2.5649309152499997,-0.14072824150000002,0.19510406150000001,0.691165845,1.505307362,1.362847231,,,-0.3442271855,-0.66858487,0.2802473805,0.595659099,0.5235988,,,,,0
2017-06-11 02:34:23.088,1.3684478591819997,0.81003647850000005,0.84701300509999999,0.4118087795,0.662258574733,1.2169001475,,,-0.393597887,-0.5914415715,0.316124588,0.628445476,0.5235988,,,,,0
2017-06-11 02:34:23.188,1.5898502050000001,2.2272718649999996,0.35251638425000004,0.6251529325,-0.37715200835,0.922796648,,,-0.408364673,-0.5596033185,0.361213268,0.6239660105,0.5235988,,,,,0
2017-06-11 02:34:23.288,2.5779434649999997,-0.49780247429999996,-1.8565279500000003,0.156705594667,-0.205846716821,0.436127492077,,,-0.4036518445,-0.549600791,0.4050766425,0.6089807685,0.5235988,,,,,0
2017-06-11 02:34:23.388,6.6680068800000001,-0.90233986700000002,-4.4346005900000005,-1.03054935073,-0.337543604122,-0.95757675969,171.0,,-0.4080320415,-0.5674397395,0.3960112875,0.595205833,0.5235988,,,,1.0,0
2017-06-11 02:34:23.488,0.28930569500000003,-4.0418952350000001,2.45675458965,-1.09954088822,-1.05277287602,-2.43427939,,,-0.381898811,-0.638844298,0.3084606065,0.5908080035,0.5235988,,,,,0
2017-06-11 02:34:23.588,-1.2055703061999998,-3.1186736447499999,0.13723018000000001,-0.9679941995,-1.7954979875,-1.6384777675,,,-0.3139619855,-0.7352635075,0.2545950545,0.5431794415,0.5235988,,,,,0
2017-06-11 02:34:23.688,-5.4128384215000001,4.2996676964500002,3.589262739,0.427327138225,-0.90951420705,-0.32285105441,,,-0.260540641,-0.7771619045,0.240403606,0.519595738,0.5235988,,,,,0
2017-06-11 02:34:23.788,-9.5837424099999993,6.5640780750000003,3.2654419925,1.0752917928,2.833843865,1.3815065375,,,-0.2801004245,-0.740328714,0.2818685655,0.5401997925,0.5235988,,,,,0
2017-06-11 02:34:23.888,5.6578752904999998,-5.8306388589000004,-0.46885881949999997,0.457776892487,1.34720398728,0.627177268133,172.0,,-0.3388965645,-0.634193319,0.298935187,0.6269505545,0.5235988,,,,1.0,0
2017-06-11 02:34:23.988,0.92887215350000008,-2.5061972130000001,2.224827844,0.53688727675,0.37952100965,1.450633763,,,-0.3718621505,-0.594551608,0.3323529335,0.6301881175,0.5235988,,,,,0
2017-06-11 02:34:24.088,0.97995889149999993,0.72549847810000001,-1.248196195,0.85843406125,0.03116980853,1.042977396,,,-0.384615212,-0.554893157,0.384245962,0.629449039,0.5235988,,,,,0
2017-06-11 02:34:24.188,2.3356296999999997,3.2256876600000006,-2.3477482149999997,0.204530961098,0.29594144739,0.733127673902,,,-0.3920338745,-0.5307477115,0.4115738795,0.62859133,0.5235988,,,,,0
2017-06-11 02:34:24.288,3.6004587450000001,-0.67926767900000007,-2.8195624100000001,-0.497499299231,-0.68530031359,-0.127685024179,,,-0.398770245,-0.53698215,0.422335702,0.6116067925,0.5235988,,,,,0
2017-06-11 02:34:24.388,2.3553023774999997,-4.2033519049999999,0.27330658749999998,-1.3117670875,-0.048790995175,-2.0910655075,173.0,,-0.386695668,-0.591788511,0.3671287865,0.6034176985,0.5235988,,,,1.0,0
2017-06-11 02:34:24.488,-2.2909342229999998,-1.1040726859999999,0.4017013177,-1.0493125265,-1.16355744925,-1.7241614725,,,-0.359890142,-0.6609667475,0.2878812985,0.591514779,0.5235988,,,,,0
2017-06-11 02:34:24.588,-1.8828555968499998,1.9903116199999999,3.06879071,-1.12520075375,-1.8879427075,-1.5666354825,,,-0.324795108,-0.744617894,0.236809983,0.5314569685,0.5235988,,,,,0
2017-06-11 02:34:24.688,-3.7353756599999999,2.1106169749999992,2.914033715,-0.53121762325,-1.74960837325,-1.16201360425,,,-0.2703317375,-0.8247977735,0.195401394,0.455429173,0.5235988,,,,,0
2017-06-11 02:34:24.788,-2.58561028,3.5282481550000009,1.5008477192999998,0.49930250513,-0.0481521636,-0.3657062173,,,-0.2291284955,-0.8576673735,0.1869766765,0.420523523,0.5235988,,,,,0
2017-06-11 02:34:24.888,4.3922969548499999,-1.5144778597999999,-2.0373327380000004,1.1661926279,0.68517677775,0.593477376925,174.0,,-0.2245708965,-0.8348436595,0.222191228,0.450305379,0.5235988,,,,1.0,0
2017-06-11 02:34:24.988,-2.5835361887499997,0.5514712060000001,0.80939375375,1.22254318,1.2735967145,1.00970477475,,,-0.2368520795,-0.7919303295,0.2813084785,0.4865118785,0.5235988,,,,,0
2017-06-11 02:34:25.088,-1.0232922145000001,-0.46005986149999989,1.0825122614999998,0.8923189085,2.12383237,1.2643602325,,,-0.2818140365,-0.7146986345,0.3302859645,0.5469508955,0.5235988,,,,,0
2017-06-11 02:34:25.188,0.17145951774999998,0.84467172455000006,0.080869525000000025,0.39748823525,1.20236665225,1.73515475,,,-0.34219173,-0.6269093785,0.3699269695,0.593372223,0.5235988,,,,,0
2017-06-11 02:34:25.288,2.8935308600000003,3.0061800650000001,1.3698730004999999,0.445879963475,0.265409175738,1.3309321395,,,-0.3965578235,-0.56645608,0.412733601,0.5925573365,0.5235988,,,,,0
2017-06-11 02:34:25.388,0.94507618903499979,0.96143534650000007,-0.28322032939999997,0.6151179125,-0.6099806105,0.6863745855,,,-0.3800998965,-0.5534245615,0.4481242545,0.590086131,0.5235988,,,,,0
2017-06-11 02:34:25.488,0.59440241849999997,0.5773749225,0.71098756299999999,0.40206655,-0.31944394025,0.7503112955,,,-0.371453489,-0.542284564,0.487261321,0.5747779235,0.5235988,,,,,0
2017-06-11 02:34:25.588,2.6873903699999997,0.8088077924999999,-0.20566124019999998,0.3564164925,-0.32998471,0.95061256925,,,-0.3685275015,-0.526901129,0.523637953,0.5587557165,0.5235988,,,,,0
2017-06-11 02:34:25.688,4.7789421649999992,-0.97048702749999993,-2.0143646373000004,-0.304883831907,-0.73159875575,-0.0909807032675,175.0,,-0.3591798595,-0.5326549565,0.549234203,0.534282162,0.5235988,,,,1.0,0
2017-06-11 02:34:25.788,1.0844380577999999,-2.5001328187499996,-0.81988254764999979,-1.629454245,-0.9930418345,-1.7232830775,,,-0.3358983125,-0.5980963885,0.5100742805,0.5175361545,0.5235988,,,,,0
2017-06-11 02:34:25.888,-0.7912225719999999,-1.8568188990000003,1.394422893,-1.316451888,-0.7146430235,-1.8463386,,,-0.295602843,-0.6862693945,0.427696796,0.50755025,0.5235988,,,,,0
2017-06-11 02:34:25.988,-3.2848338025000006,0.79716875819999999,3.4486105650000001,-0.263359578325,-1.20973987775,-1.9859771775,,,-0.23255379,-0.7459557945,0.356959312,0.510772476,0.5235988,,,,,0
2017-06-11 02:34:26.088,-6.6255548450000008,2.9486617100000001,3.5945219100000001,1.03067984675,-1.105902619,-0.813875332968,,,-0.1398341801,-0.790173033,0.3471453435,0.484630405,0.5235988,,,,,0
2017-06-11 02:34:26.188,3.23344364,-2.3272758050000002,-3.1809153399999994,1.61563943325,0.0594116212075,0.831895801625,,,-0.10247707675,-0.7709168775,0.410366664,0.4752144235,0.5235988,,,,,0
2017-06-11 02:34:26.288,-0.85759480149999967,0.47479303140000007,0.20594607999999986,0.093828838305,0.157552593075,-0.634921778775,176.0,,-0.08304481835,-0.755956404,0.4375546345,0.4796125615,0.5235988,,,,1.0,0
2017-06-11 02:34:26.388,-7.1985440261999996,-1.5620912000000005,0.52300662200000014,0.41856978231,0.091193644375,-0.366691086875,,,-0.0595959441,-0.7461110745,0.434919684,0.5004206985,0.5235988,,,,,0
2017-06-11 02:34:26.488,1.2484294954999999,-3.5698239394999995,4.032567424999999,0.50805987077,1.6948549145,1.497534885,,,-0.1032159661,-0.706302398,0.465756748,0.52175612,0.5235988,,,,,0
2017-06-11 02:34:26.588,-2.0150542946000001,0.95331640664999995,0.19694889930000009,0.9472054485,0.69191116175,1.20686510375,,,-0.1475691835,-0.648194719,0.5208610095,0.5349474215,0.5235988,,,,,0
2017-06-11 02:34:26.688,1.1461436421499998,0.99329671499999994,-1.4823092675000002,0.166176860825,1.20761041,0.93080869275,,,-0.1914836015,-0.599057819,0.5620044985,0.5368595775,0.5235988,,,,,0
2017-06-11 02:34:26.788,2.3661697249999998,1.2754884801499999,-1.1732703727499998,-0.006760998375,0.4736160316,0.2870496992,,,-0.226418088,-0.572153152,0.5655406665,0.549097193,0.5235988,,,,,0
2017-06-11 02:34:26.888,4.1360685149999998,-1.5833531915000001,-3.4303492439999999,-1.220919481,-0.597363626975,-0.8883794223,,,-0.233060661,-0.5886203505,0.544277155,0.5499539765,0.5235988,,,,,0
2017-06-11 02:34:26.988,-2.7626433523000005,-5.3163063500000005,0.48523852300999987,-1.89190882,-0.34720662745,-1.8331626125,177.0,,-0.210190855,-0.6678585065,0.4612925145,0.543620265,0.5235988,,,,1.0,0
2017-06-11 02:34:27.088,-2.5389232050000001,-2.3984846764999999,1.4340739184999998,-1.1358425241,-0.451115541821,-1.91014287026,,,-0.180974114,-0.728154423,0.3517812195,0.55868156,0.5235988,,,,,0
2017-06-11 02:34:27.188,-5.6515701850000006,1.0211022709499999,3.1768568800000003,-0.2470160628,-0.53257515075,-0.575430305462,,,-0.1492892355,-0.763847296,0.295080192,0.554063881,0.5235988,,,,,0
2017-06-11 02:34:27.288,-6.2823387000000004,2.3601173415000001,2.9092574010000001,1.239419061,0.170941498375,1.24263984975,,,-0.1505904125,-0.75738423,0.3313385265,0.5414770985,0.5235988,,,,,0
2017-06-11 02:34:27.388,6.1277634354999995,-1.7004811767999999,-6.6759070214999996,0.5388304028,-0.00585598475,-0.21981235455,,,-0.152446972,-0.727891143,0.3994658935,0.535816328,0.5235988,,,,,0
2017-06-11 02:34:27.488,-2.7429039850000003,-3.9375808335000002,-1.2595591220000002,-0.26716791522,-0.044095172439,0.451676867317,178.0,,-0.1590993535,-0.71784023,0.385639939,0.5571769015,0.5235988,,,,1.0,0
2017-06-11 02:34:27.588,-4.6252696035000005,1.5133818569999997,5.5717122129999996,-0.321574072769,1.47095771603,-0.260939387538,,,-0.1782837225,-0.711926835,0.3637493605,0.572839187,0.5235988,,,,,0
2017-06-11 02:34:27.688,-1.0714262399999999,-2.8094906011424996,0.88644745300000005,0.158929594066,1.80260438366,1.80195515683,,,-0.23074259,-0.6516311035,0.3781452575,0.6142068115,0.5235988,,,,,0
2017-06-11 02:34:27.788,1.19485274045,0.57324078175000004,0.62851428519999997,0.780006171026,-1.48250587897,1.59132617769,,,-0.2879473765,-0.5966160315,0.466320456,0.585002117,0.5235988,,,,,0
2017-06-11 02:34:27.888,0.79173620650000009,-1.5190632484999997,-1.1161288195000001,0.607957636735,0.43877292535,0.818480272075,,,-0.286505714,-0.576803514,0.5210119005,0.5598101925,0.5235988,,,,,0
2017-06-11 02:34:27.988,3.47064466,-2.7039659575000003,-0.91655590155000011,-0.282364914125,-0.415934587175,-0.5556264295,,,-0.2820799695,-0.57293725,0.5332923315,0.5546481325,0.5235988,,,,,0
2017-06-11 02:34:28.088,2.9785919104999996,-4.0034298150000005,1.4738552466500001,-0.132558196625,-1.9227059585,-1.455025755,,,-0.237254569,-0.626157787,0.50416302,0.5441358415,0.5235988,,,,,0
2017-06-11 02:34:28.188,-1.6214990000000005,-0.85745885284999979,-2.9198876699999996,0.897775625,-0.27009396,-1.54062958425,,,-0.13493732425,-0.6680920895,0.505462193,0.528528214,0.5235988,,,,,0
2017-06-11 02:34:28.288,2.7269721700000003,1.2105196505,-0.39912799770000001,-1.590059425,2.525393221,-4.844496045,,,-0.08519992975,-0.66595287,0.403966942,0.6162394545,0.5235988,,,,,0
2017-06-11 02:34:28.388,-5.7513710250000001,-4.1281594739999994,-1.6582410886999999,-0.832854041,5.4884945875,-6.25943491,,21.396,-0.005356818129,-0.5389567515,0.1462463838,0.8207937385,0.5235988,5.0,0.0,0.0,,0
2017-06-11 02:34:28.488,-3.4421148734999996,-4.3852450599999999,1.4962437774999997,1.82355347757,3.593019,-4.28855017,,,0.1036119385,-0.3209992845,-0.097436010665,0.932437754,0.5235988,,,,,0
2017-06-11 02:34:28.588,-0.73690248645,-1.6222670260000001,-4.2268817350000001,0.8262261368,1.8659295225,-1.34261747162,,250.735,0.26415479,-0.1890084685,-0.1827914165,0.9271489165,0.5235988,,,,,0
2017-06-11 02:34:28.688,0.90947110050000002,-1.1053966239999997,-0.21778016250000007,-0.352024507667,0.7026648601,0.6653462893,,,0.2778962575,-0.1101902745,-0.1711722965,0.9385575175,0.5235988,,,,,0
2017-06-11 02:34:28.788,3.0713909615000001,-0.90032429050000007,-0.26376479899999988,0.507447651875,-0.497093218125,-0.744135893675,179.0,317.266,0.2876916115,-0.11593565825,-0.1714675435,0.9349316005,0.5235988,,,,1.0,0
2017-06-11 02:34:28.888,1.1155347130500002,-1.3793587702999996,1.1812980530000001,-0.151164244958,0.629598159775,-1.63413902,,,0.289548337,-0.10736666795,-0.2401728325,0.919933145,0.5235988,,,,,0
2017-06-11 02:34:28.988,0.13929214499999992,-0.13843690118499996,-0.8279813091999999,0.982181640875,0.89846769075,-1.17409822448,,308.537,0.3202794405,-0.05164586985,-0.2911221045,0.8995804275,0.5235988,,,,,0
2017-06-11 02:34:29.088,-0.7367998,0.53164745399999991,0.77269367000000011,-0.840067556725,1.5627758705,0.32572581225,,,0.3501763335,0.01320693719,-0.2825237245,0.892404135,0.5235988,,,,,0
2017-06-11 02:34:29.188,0.77288973350000001,1.201040415,0.029591032100000025,-0.19899698935,0.400150048225,0.125930280075,180.0,292.869,0.347213877,0.05628718705,-0.2580871005,0.8997625165,0.5235988,,,,1.0,0
2017-06-11 02:34:29.288,1.6566793719999999,0.88669684750000022,0.28300807000000017,0.252925281425,1.09243386075,-0.022093031515,,,0.35631558,0.0820421481,-0.2436481215,0.898123468,0.5235988,,,,,0
2017-06-11 02:34:29.388,0.43122904314999999,0.48906660800000001,0.37306096399999999,-0.424532238783,0.4397311823,-0.0385696420675,,294.043,0.378188439,0.129865134,-0.2315358585,0.886766325,0.5235988,,,,,0
2017-06-11 02:34:29.488,-3.4731349749999998,0.1197688425,-4.0087776999999996,-1.49555063064,-0.733933889273,0.843406916364,,,0.3790174275,0.14431043,-0.228279365,0.885102205,0.5235988,,,,,0
